participant,TrialNum,diff_dotloc,diff_stim,Key_Resp_rt,Key_Resp_acc,trialType,m_diff_dotloc,m_diff_stim,m_rt,accuracy,TrialNum_,onset_greater,race,gender,is_normalvision,os,diff_dotloc (msec)
60,0,74,39,915,1,pofa,63.0,32.0,913.5,195,0.0,False,Asian,male,False,msos,
60,1,30,24,654,1,iaps,63.0,32.0,913.5,195,0.005050505050505051,False,Asian,male,False,msos,
60,2,83,42,963,1,iaps,63.0,32.0,913.5,195,0.010101010101010102,False,Asian,male,False,msos,
60,3,64,32,696,1,iaps,63.0,32.0,913.5,195,0.015151515151515152,False,Asian,male,False,msos,
60,4,64,28,1629,1,iaps,63.0,32.0,913.5,195,0.020202020202020204,False,Asian,male,False,msos,63.0
60,5,56,29,590,1,iaps,63.0,32.0,913.5,195,0.025252525252525252,False,Asian,male,False,msos,59.4
60,6,48,26,563,1,iaps,63.0,32.0,913.5,195,0.030303030303030304,False,Asian,male,False,msos,63.0
60,7,68,29,1392,1,pofa,63.0,32.0,913.5,195,0.03535353535353535,False,Asian,male,False,msos,60.0
60,8,81,43,764,1,pofa,63.0,32.0,913.5,195,0.04040404040404041,False,Asian,male,False,msos,63.4
60,9,47,36,837,0,pofa,63.0,32.0,913.5,195,0.045454545454545456,False,Asian,male,False,msos,60.0
60,10,49,24,815,1,iaps,63.0,32.0,913.5,195,0.050505050505050504,False,Asian,male,False,msos,58.6
60,11,44,19,1307,1,pofa,63.0,32.0,913.5,195,0.05555555555555555,False,Asian,male,False,msos,57.8
60,12,43,19,572,1,iaps,63.0,32.0,913.5,195,0.06060606060606061,False,Asian,male,False,msos,52.8
60,13,78,41,942,1,pofa,63.0,32.0,913.5,195,0.06565656565656566,False,Asian,male,False,msos,52.2
60,14,64,37,853,1,pofa,63.0,32.0,913.5,195,0.0707070707070707,False,Asian,male,False,msos,55.6
60,15,34,31,704,1,pofa,63.0,32.0,913.5,195,0.07575757575757576,False,Asian,male,False,msos,52.6
60,16,66,35,1281,1,pofa,63.0,32.0,913.5,195,0.08080808080808081,False,Asian,male,False,msos,57.0
60,17,66,42,1818,1,pofa,63.0,32.0,913.5,195,0.08585858585858586,False,Asian,male,False,msos,61.6
60,18,42,27,2064,1,iaps,63.0,32.0,913.5,195,0.09090909090909091,False,Asian,male,False,msos,54.4
60,19,58,35,3772,1,pofa,63.0,32.0,913.5,195,0.09595959595959595,False,Asian,male,False,msos,53.2
60,20,67,37,1720,1,iaps,63.0,32.0,913.5,195,0.10101010101010101,False,Asian,male,False,msos,59.8
60,21,62,24,945,1,pofa,63.0,32.0,913.5,195,0.10606060606060606,False,Asian,male,False,msos,59.0
60,22,79,43,746,1,iaps,63.0,32.0,913.5,195,0.1111111111111111,False,Asian,male,False,msos,61.6
60,23,59,34,948,1,pofa,63.0,32.0,913.5,195,0.11616161616161616,False,Asian,male,False,msos,65.0
60,24,53,31,1040,1,iaps,63.0,32.0,913.5,195,0.12121212121212122,False,Asian,male,False,msos,64.0
60,25,66,29,1091,1,pofa,63.0,32.0,913.5,195,0.12626262626262627,False,Asian,male,False,msos,63.8
60,26,34,27,795,1,iaps,63.0,32.0,913.5,195,0.13131313131313133,False,Asian,male,False,msos,58.2
60,27,69,35,1820,1,pofa,63.0,32.0,913.5,195,0.13636363636363635,False,Asian,male,False,msos,56.2
60,28,73,39,853,1,pofa,63.0,32.0,913.5,195,0.1414141414141414,False,Asian,male,False,msos,59.0
60,29,44,22,744,1,iaps,63.0,32.0,913.5,195,0.14646464646464646,False,Asian,male,False,msos,57.2
60,30,48,28,877,1,pofa,63.0,32.0,913.5,195,0.15151515151515152,False,Asian,male,False,msos,53.6
60,31,63,32,787,1,pofa,63.0,32.0,913.5,195,0.15656565656565657,False,Asian,male,False,msos,59.4
60,32,75,36,745,1,iaps,63.0,32.0,913.5,195,0.16161616161616163,False,Asian,male,False,msos,60.6
60,33,68,44,495,1,pofa,63.0,32.0,913.5,195,0.16666666666666666,False,Asian,male,False,msos,59.6
60,34,49,25,1252,1,iaps,63.0,32.0,913.5,195,0.1717171717171717,False,Asian,male,False,msos,60.6
60,35,52,30,1151,1,pofa,63.0,32.0,913.5,195,0.17676767676767677,False,Asian,male,False,msos,61.4
60,36,61,24,2380,1,pofa,63.0,32.0,913.5,195,0.18181818181818182,False,Asian,male,False,msos,61.0
60,37,70,42,2434,1,pofa,63.0,32.0,913.5,195,0.18686868686868688,False,Asian,male,False,msos,60.0
60,38,58,33,1031,1,pofa,63.0,32.0,913.5,195,0.1919191919191919,False,Asian,male,False,msos,58.0
60,39,49,21,825,1,iaps,63.0,32.0,913.5,195,0.19696969696969696,False,Asian,male,False,msos,58.0
60,40,63,21,1069,1,pofa,63.0,32.0,913.5,195,0.20202020202020202,False,Asian,male,False,msos,60.2
60,41,63,38,695,1,iaps,63.0,32.0,913.5,195,0.20707070707070707,False,Asian,male,False,msos,60.6
60,42,25,17,687,1,iaps,63.0,32.0,913.5,195,0.21212121212121213,False,Asian,male,False,msos,51.6
60,43,56,27,1200,1,iaps,63.0,32.0,913.5,195,0.21717171717171718,False,Asian,male,False,msos,51.2
60,44,67,33,698,0,pofa,63.0,32.0,913.5,195,0.2222222222222222,False,Asian,male,False,msos,54.8
60,45,50,20,1138,1,iaps,63.0,32.0,913.5,195,0.22727272727272727,False,Asian,male,False,msos,52.2
60,46,65,41,1141,1,pofa,63.0,32.0,913.5,195,0.23232323232323232,False,Asian,male,False,msos,52.6
60,47,60,31,872,1,pofa,63.0,32.0,913.5,195,0.23737373737373738,False,Asian,male,False,msos,59.6
60,48,67,34,2107,1,iaps,63.0,32.0,913.5,195,0.24242424242424243,False,Asian,male,False,msos,61.8
60,49,40,24,676,1,pofa,63.0,32.0,913.5,195,0.2474747474747475,False,Asian,male,False,msos,56.4
60,50,82,48,1037,1,pofa,63.0,32.0,913.5,195,0.25252525252525254,False,Asian,male,False,msos,62.8
60,51,58,23,793,1,pofa,63.0,32.0,913.5,195,0.25757575757575757,False,Asian,male,False,msos,61.4
60,52,48,28,1167,1,iaps,63.0,32.0,913.5,195,0.26262626262626265,False,Asian,male,False,msos,59.0
60,53,77,35,950,1,pofa,63.0,32.0,913.5,195,0.2676767676767677,False,Asian,male,False,msos,61.0
60,54,76,39,982,1,pofa,63.0,32.0,913.5,195,0.2727272727272727,False,Asian,male,False,msos,68.2
60,55,58,21,1057,1,iaps,63.0,32.0,913.5,195,0.2777777777777778,False,Asian,male,False,msos,63.4
60,56,69,43,809,1,iaps,63.0,32.0,913.5,195,0.2828282828282828,False,Asian,male,False,msos,65.6
60,57,54,27,448,1,iaps,63.0,32.0,913.5,195,0.2878787878787879,False,Asian,male,False,msos,66.8
60,58,66,29,967,1,iaps,63.0,32.0,913.5,195,0.29292929292929293,False,Asian,male,False,msos,64.6
60,59,49,23,955,1,pofa,63.0,32.0,913.5,195,0.29797979797979796,False,Asian,male,False,msos,59.2
60,60,48,23,462,1,iaps,63.0,32.0,913.5,195,0.30303030303030304,False,Asian,male,False,msos,57.2
60,61,76,42,904,1,pofa,63.0,32.0,913.5,195,0.30808080808080807,False,Asian,male,False,msos,58.6
60,62,63,20,754,1,iaps,63.0,32.0,913.5,195,0.31313131313131315,False,Asian,male,False,msos,60.4
60,63,64,27,572,1,pofa,63.0,32.0,913.5,195,0.3181818181818182,False,Asian,male,False,msos,60.0
60,64,80,35,815,1,iaps,63.0,32.0,913.5,195,0.32323232323232326,False,Asian,male,False,msos,66.2
60,65,66,37,450,1,pofa,63.0,32.0,913.5,195,0.3282828282828283,False,Asian,male,False,msos,69.8
60,66,87,47,1021,1,iaps,63.0,32.0,913.5,195,0.3333333333333333,False,Asian,male,False,msos,72.0
60,67,79,34,2609,1,iaps,63.0,32.0,913.5,195,0.3383838383838384,False,Asian,male,False,msos,75.2
60,68,60,18,709,1,pofa,63.0,32.0,913.5,195,0.3434343434343434,False,Asian,male,False,msos,74.4
60,69,53,26,2124,1,pofa,63.0,32.0,913.5,195,0.3484848484848485,False,Asian,male,False,msos,69.0
60,70,50,38,707,1,iaps,63.0,32.0,913.5,195,0.35353535353535354,False,Asian,male,False,msos,65.8
60,71,55,29,1218,1,iaps,63.0,32.0,913.5,195,0.35858585858585856,False,Asian,male,False,msos,59.4
60,72,82,37,3289,1,pofa,63.0,32.0,913.5,195,0.36363636363636365,False,Asian,male,False,msos,60.0
60,73,64,30,786,1,iaps,63.0,32.0,913.5,195,0.3686868686868687,False,Asian,male,False,msos,60.8
60,74,57,31,3356,1,pofa,63.0,32.0,913.5,195,0.37373737373737376,False,Asian,male,False,msos,61.6
60,75,83,50,3122,1,iaps,63.0,32.0,913.5,195,0.3787878787878788,False,Asian,male,False,msos,68.2
60,76,54,35,1121,1,pofa,63.0,32.0,913.5,195,0.3838383838383838,False,Asian,male,False,msos,68.0
60,77,54,24,1560,1,pofa,63.0,32.0,913.5,195,0.3888888888888889,False,Asian,male,False,msos,62.4
60,78,73,38,1882,1,pofa,63.0,32.0,913.5,195,0.3939393939393939,False,Asian,male,False,msos,64.2
60,79,98,54,839,1,iaps,63.0,32.0,913.5,195,0.398989898989899,False,Asian,male,False,msos,72.4
60,80,47,27,2286,1,pofa,63.0,32.0,913.5,195,0.40404040404040403,False,Asian,male,False,msos,65.2
60,81,57,25,791,1,iaps,63.0,32.0,913.5,195,0.4090909090909091,False,Asian,male,False,msos,65.8
60,82,65,33,422,1,pofa,63.0,32.0,913.5,195,0.41414141414141414,False,Asian,male,False,msos,68.0
60,83,61,28,962,1,iaps,63.0,32.0,913.5,195,0.41919191919191917,False,Asian,male,False,msos,65.6
60,84,67,36,858,1,pofa,63.0,32.0,913.5,195,0.42424242424242425,False,Asian,male,False,msos,59.4
60,85,64,30,837,1,pofa,63.0,32.0,913.5,195,0.4292929292929293,False,Asian,male,False,msos,62.8
60,86,72,29,631,1,iaps,63.0,32.0,913.5,195,0.43434343434343436,False,Asian,male,False,msos,65.8
60,87,77,28,1867,1,pofa,63.0,32.0,913.5,195,0.4393939393939394,False,Asian,male,False,msos,68.2
60,88,46,1,613,1,iaps,63.0,32.0,913.5,195,0.4444444444444444,False,Asian,male,False,msos,65.2
60,89,59,19,638,1,iaps,63.0,32.0,913.5,195,0.4494949494949495,False,Asian,male,False,msos,63.6
60,90,74,30,770,0,pofa,63.0,32.0,913.5,195,0.45454545454545453,False,Asian,male,False,msos,65.6
60,91,60,35,982,1,iaps,63.0,32.0,913.5,195,0.4595959595959596,False,Asian,male,False,msos,63.2
60,92,51,27,1146,1,pofa,63.0,32.0,913.5,195,0.46464646464646464,False,Asian,male,False,msos,58.0
60,93,80,50,869,1,pofa,63.0,32.0,913.5,195,0.4696969696969697,False,Asian,male,False,msos,64.8
60,94,38,7,1103,1,iaps,63.0,32.0,913.5,195,0.47474747474747475,False,Asian,male,False,msos,60.6
60,95,51,9,694,1,pofa,63.0,32.0,913.5,195,0.4797979797979798,False,Asian,male,False,msos,56.0
60,96,68,34,2035,1,iaps,63.0,32.0,913.5,195,0.48484848484848486,False,Asian,male,False,msos,57.6
60,97,80,42,1708,1,iaps,63.0,32.0,913.5,195,0.4898989898989899,False,Asian,male,False,msos,63.4
60,98,52,33,971,1,pofa,63.0,32.0,913.5,195,0.494949494949495,False,Asian,male,False,msos,57.8
60,99,53,22,778,1,iaps,63.0,32.0,913.5,195,0.5,False,Asian,male,False,msos,60.8
60,100,48,29,1433,1,pofa,63.0,32.0,913.5,195,0.5050505050505051,False,Asian,male,False,msos,60.2
60,101,85,39,982,1,pofa,63.0,32.0,913.5,195,0.51010101010101,False,Asian,male,False,msos,63.6
60,102,57,32,2847,1,pofa,63.0,32.0,913.5,195,0.5151515151515151,False,Asian,male,False,msos,59.0
60,103,43,21,1601,1,pofa,63.0,32.0,913.5,195,0.5202020202020202,False,Asian,male,False,msos,57.2
60,104,45,21,982,1,iaps,63.0,32.0,913.5,195,0.5252525252525253,False,Asian,male,False,msos,55.6
60,105,75,36,1216,1,pofa,63.0,32.0,913.5,195,0.5303030303030303,False,Asian,male,False,msos,61.0
60,106,50,30,1296,1,pofa,63.0,32.0,913.5,195,0.5353535353535354,False,Asian,male,False,msos,54.0
60,107,60,36,3797,1,iaps,63.0,32.0,913.5,195,0.5404040404040404,False,Asian,male,False,msos,54.6
60,108,57,29,1286,1,pofa,63.0,32.0,913.5,195,0.5454545454545454,False,Asian,male,False,msos,57.4
60,109,77,39,2545,1,iaps,63.0,32.0,913.5,195,0.5505050505050505,False,Asian,male,False,msos,63.8
60,110,71,38,2370,1,iaps,63.0,32.0,913.5,195,0.5555555555555556,False,Asian,male,False,msos,63.0
60,111,56,33,1154,1,iaps,63.0,32.0,913.5,195,0.5606060606060606,False,Asian,male,False,msos,64.2
60,112,39,7,1268,1,pofa,63.0,32.0,913.5,195,0.5656565656565656,False,Asian,male,False,msos,60.0
60,113,67,35,1009,1,iaps,63.0,32.0,913.5,195,0.5707070707070707,False,Asian,male,False,msos,62.0
60,114,97,47,1838,1,iaps,63.0,32.0,913.5,195,0.5757575757575758,False,Asian,male,False,msos,66.0
60,115,62,29,2184,1,iaps,63.0,32.0,913.5,195,0.5808080808080808,False,Asian,male,False,msos,64.2
60,116,80,56,1819,1,pofa,63.0,32.0,913.5,195,0.5858585858585859,False,Asian,male,False,msos,69.0
60,117,63,38,762,1,pofa,63.0,32.0,913.5,195,0.5909090909090909,False,Asian,male,False,msos,73.8
60,118,52,24,1125,1,pofa,63.0,32.0,913.5,195,0.5959595959595959,False,Asian,male,False,msos,70.8
60,119,46,40,931,1,pofa,63.0,32.0,913.5,195,0.601010101010101,False,Asian,male,False,msos,60.6
60,120,34,6,1099,1,pofa,63.0,32.0,913.5,195,0.6060606060606061,False,Asian,male,False,msos,55.0
60,121,56,30,693,1,iaps,63.0,32.0,913.5,195,0.6111111111111112,False,Asian,male,False,msos,50.2
60,122,63,29,660,1,iaps,63.0,32.0,913.5,195,0.6161616161616161,False,Asian,male,False,msos,50.2
60,123,73,27,795,1,iaps,63.0,32.0,913.5,195,0.6212121212121212,False,Asian,male,False,msos,54.4
60,124,69,42,1129,1,pofa,63.0,32.0,913.5,195,0.6262626262626263,False,Asian,male,False,msos,59.0
60,125,68,40,1987,1,pofa,63.0,32.0,913.5,195,0.6313131313131313,False,Asian,male,False,msos,65.8
60,126,64,33,1086,1,iaps,63.0,32.0,913.5,195,0.6363636363636364,False,Asian,male,False,msos,67.4
60,127,42,34,2009,1,pofa,63.0,32.0,913.5,195,0.6414141414141414,False,Asian,male,False,msos,63.2
60,128,86,31,701,1,pofa,63.0,32.0,913.5,195,0.6464646464646465,False,Asian,male,False,msos,65.8
60,129,63,34,878,1,pofa,63.0,32.0,913.5,195,0.6515151515151515,False,Asian,male,False,msos,64.6
60,130,63,53,1146,1,pofa,63.0,32.0,913.5,195,0.6565656565656566,False,Asian,male,False,msos,63.6
60,131,88,53,723,1,iaps,63.0,32.0,913.5,195,0.6616161616161617,False,Asian,male,False,msos,68.4
60,132,52,29,955,1,pofa,63.0,32.0,913.5,195,0.6666666666666666,False,Asian,male,False,msos,70.4
60,133,63,25,964,1,pofa,63.0,32.0,913.5,195,0.6717171717171717,False,Asian,male,False,msos,65.8
60,134,48,27,966,1,pofa,63.0,32.0,913.5,195,0.6767676767676768,False,Asian,male,False,msos,62.8
60,135,72,31,951,1,pofa,63.0,32.0,913.5,195,0.6818181818181818,False,Asian,male,False,msos,64.6
60,136,52,28,719,1,iaps,63.0,32.0,913.5,195,0.6868686868686869,False,Asian,male,False,msos,57.4
60,137,69,22,841,1,iaps,63.0,32.0,913.5,195,0.6919191919191919,False,Asian,male,False,msos,60.8
60,138,59,21,868,1,pofa,63.0,32.0,913.5,195,0.696969696969697,False,Asian,male,False,msos,60.0
60,139,43,32,846,1,pofa,63.0,32.0,913.5,195,0.702020202020202,False,Asian,male,False,msos,59.0
60,140,76,32,546,1,iaps,63.0,32.0,913.5,195,0.7070707070707071,False,Asian,male,False,msos,59.8
60,141,60,29,927,1,pofa,63.0,32.0,913.5,195,0.7121212121212122,False,Asian,male,False,msos,61.4
60,142,31,22,856,1,iaps,63.0,32.0,913.5,195,0.7171717171717171,False,Asian,male,False,msos,53.8
60,143,46,20,1308,1,iaps,63.0,32.0,913.5,195,0.7222222222222222,False,Asian,male,False,msos,51.2
60,144,57,28,965,1,pofa,63.0,32.0,913.5,195,0.7272727272727273,False,Asian,male,False,msos,54.0
60,145,63,35,582,1,iaps,63.0,32.0,913.5,195,0.7323232323232324,False,Asian,male,False,msos,51.4
60,146,98,35,892,1,pofa,63.0,32.0,913.5,195,0.7373737373737373,False,Asian,male,False,msos,59.0
60,147,66,34,799,1,iaps,63.0,32.0,913.5,195,0.7424242424242424,False,Asian,male,False,msos,66.0
60,148,71,36,860,1,iaps,63.0,32.0,913.5,195,0.7474747474747475,False,Asian,male,False,msos,71.0
60,149,64,34,707,1,pofa,63.0,32.0,913.5,195,0.7525252525252525,False,Asian,male,False,msos,72.4
60,150,80,36,1447,1,pofa,63.0,32.0,913.5,195,0.7575757575757576,False,Asian,male,False,msos,75.8
60,151,65,43,1418,1,pofa,63.0,32.0,913.5,195,0.7626262626262627,False,Asian,male,False,msos,69.2
60,152,69,28,911,1,iaps,63.0,32.0,913.5,195,0.7676767676767676,False,Asian,male,False,msos,69.8
60,153,75,41,860,1,iaps,63.0,32.0,913.5,195,0.7727272727272727,False,Asian,male,False,msos,70.6
60,154,37,32,953,1,pofa,63.0,32.0,913.5,195,0.7777777777777778,False,Asian,male,False,msos,65.2
60,155,64,32,668,1,iaps,63.0,32.0,913.5,195,0.7828282828282829,False,Asian,male,False,msos,62.0
60,156,76,32,1533,1,iaps,63.0,32.0,913.5,195,0.7878787878787878,False,Asian,male,False,msos,64.2
60,157,51,23,923,1,pofa,63.0,32.0,913.5,195,0.7929292929292929,False,Asian,male,False,msos,60.6
60,158,65,33,1003,1,pofa,63.0,32.0,913.5,195,0.797979797979798,False,Asian,male,False,msos,58.6
60,159,69,35,1249,1,iaps,63.0,32.0,913.5,195,0.803030303030303,False,Asian,male,False,msos,65.0
60,160,63,41,757,1,pofa,63.0,32.0,913.5,195,0.8080808080808081,False,Asian,male,False,msos,64.8
60,161,62,27,749,1,pofa,63.0,32.0,913.5,195,0.8131313131313131,False,Asian,male,False,msos,62.0
60,162,67,36,694,1,iaps,63.0,32.0,913.5,195,0.8181818181818182,False,Asian,male,False,msos,65.2
60,163,62,31,933,1,pofa,63.0,32.0,913.5,195,0.8232323232323232,False,Asian,male,False,msos,64.6
60,164,73,54,535,1,iaps,63.0,32.0,913.5,195,0.8282828282828283,False,Asian,male,False,msos,65.4
60,165,50,28,1025,1,iaps,63.0,32.0,913.5,195,0.8333333333333334,False,Asian,male,False,msos,62.8
60,166,69,34,940,1,iaps,63.0,32.0,913.5,195,0.8383838383838383,False,Asian,male,False,msos,64.2
60,167,69,33,755,1,pofa,63.0,32.0,913.5,195,0.8434343434343434,False,Asian,male,False,msos,64.6
60,168,81,42,851,1,iaps,63.0,32.0,913.5,195,0.8484848484848485,False,Asian,male,False,msos,68.4
60,169,64,33,800,1,pofa,63.0,32.0,913.5,195,0.8535353535353535,False,Asian,male,False,msos,66.6
60,170,79,22,774,1,iaps,63.0,32.0,913.5,195,0.8585858585858586,False,Asian,male,False,msos,72.4
60,171,77,43,697,1,pofa,63.0,32.0,913.5,195,0.8636363636363636,False,Asian,male,False,msos,74.0
60,172,32,25,637,1,pofa,63.0,32.0,913.5,195,0.8686868686868687,False,Asian,male,False,msos,66.6
60,173,32,14,738,1,pofa,63.0,32.0,913.5,195,0.8737373737373737,False,Asian,male,False,msos,56.8
60,174,42,21,722,1,iaps,63.0,32.0,913.5,195,0.8787878787878788,False,Asian,male,False,msos,52.4
60,175,62,38,770,1,pofa,63.0,32.0,913.5,195,0.8838383838383839,False,Asian,male,False,msos,49.0
60,176,51,29,979,1,pofa,63.0,32.0,913.5,195,0.8888888888888888,False,Asian,male,False,msos,43.8
60,177,53,31,682,1,pofa,63.0,32.0,913.5,195,0.8939393939393939,False,Asian,male,False,msos,48.0
60,178,42,22,740,1,iaps,63.0,32.0,913.5,195,0.898989898989899,False,Asian,male,False,msos,50.0
60,179,84,30,773,1,pofa,63.0,32.0,913.5,195,0.9040404040404041,False,Asian,male,False,msos,58.4
60,180,64,38,860,1,iaps,63.0,32.0,913.5,195,0.9090909090909091,False,Asian,male,False,msos,58.8
60,181,63,38,715,1,pofa,63.0,32.0,913.5,195,0.9141414141414141,False,Asian,male,False,msos,61.2
60,182,67,34,588,1,pofa,63.0,32.0,913.5,195,0.9191919191919192,False,Asian,male,False,msos,64.0
60,183,65,33,892,1,pofa,63.0,32.0,913.5,195,0.9242424242424242,False,Asian,male,False,msos,68.6
60,184,40,37,1268,1,iaps,63.0,32.0,913.5,195,0.9292929292929293,False,Asian,male,False,msos,59.8
60,185,89,53,1390,1,pofa,63.0,32.0,913.5,195,0.9343434343434344,False,Asian,male,False,msos,64.8
60,186,74,31,675,1,iaps,63.0,32.0,913.5,195,0.9393939393939394,False,Asian,male,False,msos,67.0
60,187,64,36,837,1,iaps,63.0,32.0,913.5,195,0.9444444444444444,False,Asian,male,False,msos,66.4
60,188,66,25,912,1,pofa,63.0,32.0,913.5,195,0.9494949494949495,False,Asian,male,False,msos,66.6
60,189,91,48,812,1,pofa,63.0,32.0,913.5,195,0.9545454545454546,False,Asian,male,False,msos,76.8
60,190,71,43,1310,1,iaps,63.0,32.0,913.5,195,0.9595959595959596,False,Asian,male,False,msos,73.2
60,191,78,58,498,1,pofa,63.0,32.0,913.5,195,0.9646464646464646,False,Asian,male,False,msos,74.0
60,192,58,34,835,1,iaps,63.0,32.0,913.5,195,0.9696969696969697,False,Asian,male,False,msos,72.8
60,193,47,26,697,1,iaps,63.0,32.0,913.5,195,0.9747474747474747,False,Asian,male,False,msos,69.0
60,194,45,20,2559,1,iaps,63.0,32.0,913.5,195,0.9797979797979798,False,Asian,male,False,msos,59.8
60,195,67,29,760,1,iaps,63.0,32.0,913.5,195,0.9848484848484849,False,Asian,male,False,msos,59.0
60,196,44,7,745,1,pofa,63.0,32.0,913.5,195,0.98989898989899,False,Asian,male,False,msos,52.2
60,197,52,27,627,1,pofa,63.0,32.0,913.5,195,0.9949494949494949,False,Asian,male,False,msos,51.0
62,0,10,4,961,1,iaps,42.0,19.0,1027.0,194,0.0,False,Asian,male,True,msos,
62,1,35,27,1104,1,pofa,42.0,19.0,1027.0,194,0.005050505050505051,False,Asian,male,True,msos,
62,2,31,12,769,1,pofa,42.0,19.0,1027.0,194,0.010101010101010102,False,Asian,male,True,msos,
62,3,62,58,1032,1,pofa,42.0,19.0,1027.0,194,0.015151515151515152,False,Asian,male,True,msos,
62,4,5,1,1328,1,pofa,42.0,19.0,1027.0,194,0.020202020202020204,False,Asian,male,True,msos,28.6
62,5,65,32,858,1,iaps,42.0,19.0,1027.0,194,0.025252525252525252,False,Asian,male,True,msos,39.6
62,6,46,34,697,1,iaps,42.0,19.0,1027.0,194,0.030303030303030304,False,Asian,male,True,msos,41.8
62,7,74,39,696,1,iaps,42.0,19.0,1027.0,194,0.03535353535353535,False,Asian,male,True,msos,50.4
62,8,10,0,1404,1,pofa,42.0,19.0,1027.0,194,0.04040404040404041,False,Asian,male,True,msos,40.0
62,9,42,6,1170,1,pofa,42.0,19.0,1027.0,194,0.045454545454545456,False,Asian,male,True,msos,47.4
62,10,65,56,934,1,iaps,42.0,19.0,1027.0,194,0.050505050505050504,False,Asian,male,True,msos,47.4
62,11,49,23,1383,1,iaps,42.0,19.0,1027.0,194,0.05555555555555555,False,Asian,male,True,msos,48.0
62,12,74,35,868,1,pofa,42.0,19.0,1027.0,194,0.06060606060606061,False,Asian,male,True,msos,48.0
62,13,13,5,878,1,pofa,42.0,19.0,1027.0,194,0.06565656565656566,False,Asian,male,True,msos,48.6
62,14,65,38,850,1,iaps,42.0,19.0,1027.0,194,0.0707070707070707,False,Asian,male,True,msos,53.2
62,15,56,25,718,1,pofa,42.0,19.0,1027.0,194,0.07575757575757576,False,Asian,male,True,msos,51.4
62,16,51,46,899,1,iaps,42.0,19.0,1027.0,194,0.08080808080808081,False,Asian,male,True,msos,51.8
62,17,7,5,1553,1,pofa,42.0,19.0,1027.0,194,0.08585858585858586,False,Asian,male,True,msos,38.4
62,18,39,20,2744,1,iaps,42.0,19.0,1027.0,194,0.09090909090909091,False,Asian,male,True,msos,43.6
62,19,42,20,729,1,pofa,42.0,19.0,1027.0,194,0.09595959595959595,False,Asian,male,True,msos,39.0
62,20,9,3,763,1,pofa,42.0,19.0,1027.0,194,0.10101010101010101,False,Asian,male,True,msos,29.6
62,21,44,2,840,1,iaps,42.0,19.0,1027.0,194,0.10606060606060606,False,Asian,male,True,msos,28.2
62,22,31,24,2257,1,pofa,42.0,19.0,1027.0,194,0.1111111111111111,False,Asian,male,True,msos,33.0
62,23,50,33,989,1,iaps,42.0,19.0,1027.0,194,0.11616161616161616,False,Asian,male,True,msos,35.2
62,24,42,14,1135,1,pofa,42.0,19.0,1027.0,194,0.12121212121212122,False,Asian,male,True,msos,35.2
62,25,58,35,1548,1,iaps,42.0,19.0,1027.0,194,0.12626262626262627,False,Asian,male,True,msos,45.0
62,26,21,3,760,1,pofa,42.0,19.0,1027.0,194,0.13131313131313133,False,Asian,male,True,msos,40.4
62,27,41,3,808,1,iaps,42.0,19.0,1027.0,194,0.13636363636363635,False,Asian,male,True,msos,42.4
62,28,19,1,840,1,pofa,42.0,19.0,1027.0,194,0.1414141414141414,False,Asian,male,True,msos,36.2
62,29,40,7,864,1,pofa,42.0,19.0,1027.0,194,0.14646464646464646,False,Asian,male,True,msos,35.8
62,30,51,34,635,1,iaps,42.0,19.0,1027.0,194,0.15151515151515152,False,Asian,male,True,msos,34.4
62,31,53,18,1037,1,iaps,42.0,19.0,1027.0,194,0.15656565656565657,False,Asian,male,True,msos,40.8
62,32,62,39,1063,1,iaps,42.0,19.0,1027.0,194,0.16161616161616163,False,Asian,male,True,msos,45.0
62,33,58,18,1212,1,pofa,42.0,19.0,1027.0,194,0.16666666666666666,False,Asian,male,True,msos,52.8
62,34,60,30,1181,1,pofa,42.0,19.0,1027.0,194,0.1717171717171717,False,Asian,male,True,msos,56.8
62,35,50,26,885,1,pofa,42.0,19.0,1027.0,194,0.17676767676767677,False,Asian,male,True,msos,56.6
62,36,34,19,706,1,iaps,42.0,19.0,1027.0,194,0.18181818181818182,False,Asian,male,True,msos,52.8
62,37,87,52,747,1,iaps,42.0,19.0,1027.0,194,0.18686868686868688,False,Asian,male,True,msos,57.8
62,38,34,34,798,1,pofa,42.0,19.0,1027.0,194,0.1919191919191919,False,Asian,male,True,msos,53.0
62,39,32,21,1254,1,pofa,42.0,19.0,1027.0,194,0.19696969696969696,False,Asian,male,True,msos,47.4
62,40,22,4,1809,1,pofa,42.0,19.0,1027.0,194,0.20202020202020202,False,Asian,male,True,msos,41.8
62,41,26,8,1588,1,iaps,42.0,19.0,1027.0,194,0.20707070707070707,False,Asian,male,True,msos,40.2
62,42,58,35,3342,1,iaps,42.0,19.0,1027.0,194,0.21212121212121213,False,Asian,male,True,msos,34.4
62,43,45,33,908,1,pofa,42.0,19.0,1027.0,194,0.21717171717171718,False,Asian,male,True,msos,36.6
62,44,20,7,1128,1,pofa,42.0,19.0,1027.0,194,0.2222222222222222,False,Asian,male,True,msos,34.2
62,45,13,9,997,1,pofa,42.0,19.0,1027.0,194,0.22727272727272727,False,Asian,male,True,msos,32.4
62,46,17,5,1464,1,iaps,42.0,19.0,1027.0,194,0.23232323232323232,False,Asian,male,True,msos,30.6
62,47,41,9,1497,1,iaps,42.0,19.0,1027.0,194,0.23737373737373738,False,Asian,male,True,msos,27.2
62,48,47,13,931,1,iaps,42.0,19.0,1027.0,194,0.24242424242424243,False,Asian,male,True,msos,27.6
62,49,46,26,936,1,iaps,42.0,19.0,1027.0,194,0.2474747474747475,False,Asian,male,True,msos,32.8
62,50,31,17,1028,1,pofa,42.0,19.0,1027.0,194,0.25252525252525254,False,Asian,male,True,msos,36.4
62,51,56,16,762,1,pofa,42.0,19.0,1027.0,194,0.25757575757575757,False,Asian,male,True,msos,44.2
62,52,50,35,2847,1,pofa,42.0,19.0,1027.0,194,0.26262626262626265,False,Asian,male,True,msos,46.0
62,53,47,32,2835,1,iaps,42.0,19.0,1027.0,194,0.2676767676767677,False,Asian,male,True,msos,46.0
62,54,56,35,700,1,iaps,42.0,19.0,1027.0,194,0.2727272727272727,False,Asian,male,True,msos,48.0
62,55,48,31,796,1,pofa,42.0,19.0,1027.0,194,0.2777777777777778,False,Asian,male,True,msos,51.4
62,56,20,17,1166,1,pofa,42.0,19.0,1027.0,194,0.2828282828282828,False,Asian,male,True,msos,44.2
62,57,34,13,595,1,iaps,42.0,19.0,1027.0,194,0.2878787878787879,False,Asian,male,True,msos,41.0
62,58,30,12,613,1,pofa,42.0,19.0,1027.0,194,0.29292929292929293,False,Asian,male,True,msos,37.6
62,59,45,33,665,1,pofa,42.0,19.0,1027.0,194,0.29797979797979796,False,Asian,male,True,msos,35.4
62,60,51,11,745,1,pofa,42.0,19.0,1027.0,194,0.30303030303030304,False,Asian,male,True,msos,36.0
62,61,25,19,838,1,pofa,42.0,19.0,1027.0,194,0.30808080808080807,False,Asian,male,True,msos,37.0
62,62,21,16,3352,1,iaps,42.0,19.0,1027.0,194,0.31313131313131315,False,Asian,male,True,msos,34.4
62,63,10,1,681,1,iaps,42.0,19.0,1027.0,194,0.3181818181818182,False,Asian,male,True,msos,30.4
62,64,33,13,1595,1,iaps,42.0,19.0,1027.0,194,0.32323232323232326,False,Asian,male,True,msos,28.0
62,65,15,5,702,1,pofa,42.0,19.0,1027.0,194,0.3282828282828283,False,Asian,male,True,msos,20.8
62,66,42,36,743,1,iaps,42.0,19.0,1027.0,194,0.3333333333333333,False,Asian,male,True,msos,24.2
62,67,43,9,939,1,iaps,42.0,19.0,1027.0,194,0.3383838383838384,False,Asian,male,True,msos,28.6
62,68,48,11,486,1,iaps,42.0,19.0,1027.0,194,0.3434343434343434,False,Asian,male,True,msos,36.2
62,69,32,26,781,1,pofa,42.0,19.0,1027.0,194,0.3484848484848485,False,Asian,male,True,msos,36.0
62,70,47,30,942,1,pofa,42.0,19.0,1027.0,194,0.35353535353535354,False,Asian,male,True,msos,42.4
62,71,55,10,724,1,iaps,42.0,19.0,1027.0,194,0.35858585858585856,False,Asian,male,True,msos,45.0
62,72,31,17,671,1,pofa,42.0,19.0,1027.0,194,0.36363636363636365,False,Asian,male,True,msos,42.6
62,73,30,8,691,1,iaps,42.0,19.0,1027.0,194,0.3686868686868687,False,Asian,male,True,msos,39.0
62,74,55,25,758,1,pofa,42.0,19.0,1027.0,194,0.37373737373737376,False,Asian,male,True,msos,43.6
62,75,53,14,681,1,pofa,42.0,19.0,1027.0,194,0.3787878787878788,False,Asian,male,True,msos,44.8
62,76,25,24,757,1,pofa,42.0,19.0,1027.0,194,0.3838383838383838,False,Asian,male,True,msos,38.8
62,77,70,22,976,1,iaps,42.0,19.0,1027.0,194,0.3888888888888889,False,Asian,male,True,msos,46.6
62,78,13,4,777,1,iaps,42.0,19.0,1027.0,194,0.3939393939393939,False,Asian,male,True,msos,43.2
62,79,25,8,1537,1,iaps,42.0,19.0,1027.0,194,0.398989898989899,False,Asian,male,True,msos,37.2
62,80,28,20,825,1,pofa,42.0,19.0,1027.0,194,0.40404040404040403,False,Asian,male,True,msos,32.2
62,81,31,23,3037,1,iaps,42.0,19.0,1027.0,194,0.4090909090909091,False,Asian,male,True,msos,33.4
62,82,79,40,2418,1,pofa,42.0,19.0,1027.0,194,0.41414141414141414,False,Asian,male,True,msos,35.2
62,83,60,36,805,1,pofa,42.0,19.0,1027.0,194,0.41919191919191917,False,Asian,male,True,msos,44.6
62,84,23,3,1060,1,pofa,42.0,19.0,1027.0,194,0.42424242424242425,False,Asian,male,True,msos,44.2
62,85,35,5,748,0,pofa,42.0,19.0,1027.0,194,0.4292929292929293,False,Asian,male,True,msos,45.6
62,86,21,9,831,1,pofa,42.0,19.0,1027.0,194,0.43434343434343436,False,Asian,male,True,msos,43.6
62,87,44,19,1937,1,iaps,42.0,19.0,1027.0,194,0.4393939393939394,False,Asian,male,True,msos,36.6
62,88,64,23,3811,1,pofa,42.0,19.0,1027.0,194,0.4444444444444444,False,Asian,male,True,msos,37.4
62,89,53,18,1226,1,iaps,42.0,19.0,1027.0,194,0.4494949494949495,False,Asian,male,True,msos,43.4
62,90,17,11,1205,1,iaps,42.0,19.0,1027.0,194,0.45454545454545453,False,Asian,male,True,msos,39.8
62,91,37,28,1048,1,pofa,42.0,19.0,1027.0,194,0.4595959595959596,False,Asian,male,True,msos,43.0
62,92,78,43,652,1,pofa,42.0,19.0,1027.0,194,0.46464646464646464,False,Asian,male,True,msos,49.8
62,93,39,10,827,1,iaps,42.0,19.0,1027.0,194,0.4696969696969697,False,Asian,male,True,msos,44.8
62,94,35,8,726,1,iaps,42.0,19.0,1027.0,194,0.47474747474747475,False,Asian,male,True,msos,41.2
62,95,42,8,856,1,pofa,42.0,19.0,1027.0,194,0.4797979797979798,False,Asian,male,True,msos,46.2
62,96,55,21,3846,1,pofa,42.0,19.0,1027.0,194,0.48484848484848486,False,Asian,male,True,msos,49.8
62,97,27,6,907,1,iaps,42.0,19.0,1027.0,194,0.4898989898989899,False,Asian,male,True,msos,39.6
62,98,27,26,708,1,pofa,42.0,19.0,1027.0,194,0.494949494949495,False,Asian,male,True,msos,37.2
62,99,26,20,1853,1,pofa,42.0,19.0,1027.0,194,0.5,False,Asian,male,True,msos,35.4
62,100,42,37,765,1,pofa,42.0,19.0,1027.0,194,0.5050505050505051,False,Asian,male,True,msos,35.4
62,101,36,35,1747,1,pofa,42.0,19.0,1027.0,194,0.51010101010101,False,Asian,male,True,msos,31.6
62,102,44,29,849,1,iaps,42.0,19.0,1027.0,194,0.5151515151515151,False,Asian,male,True,msos,35.0
62,103,14,2,2305,1,iaps,42.0,19.0,1027.0,194,0.5202020202020202,False,Asian,male,True,msos,32.4
62,104,16,12,1386,1,iaps,42.0,19.0,1027.0,194,0.5252525252525253,False,Asian,male,True,msos,30.4
62,105,42,27,1251,1,pofa,42.0,19.0,1027.0,194,0.5303030303030303,False,Asian,male,True,msos,30.4
62,106,19,15,721,1,pofa,42.0,19.0,1027.0,194,0.5353535353535354,False,Asian,male,True,msos,27.0
62,107,50,41,729,1,iaps,42.0,19.0,1027.0,194,0.5404040404040404,False,Asian,male,True,msos,28.2
62,108,78,36,682,1,pofa,42.0,19.0,1027.0,194,0.5454545454545454,False,Asian,male,True,msos,41.0
62,109,10,10,731,1,iaps,42.0,19.0,1027.0,194,0.5505050505050505,False,Asian,male,True,msos,39.8
62,110,15,14,1562,1,iaps,42.0,19.0,1027.0,194,0.5555555555555556,False,Asian,male,True,msos,34.4
62,111,28,6,1400,1,iaps,42.0,19.0,1027.0,194,0.5606060606060606,False,Asian,male,True,msos,36.2
62,112,65,38,1428,1,iaps,42.0,19.0,1027.0,194,0.5656565656565656,False,Asian,male,True,msos,39.2
62,113,52,31,3985,1,pofa,42.0,19.0,1027.0,194,0.5707070707070707,False,Asian,male,True,msos,34.0
62,114,73,32,3739,1,pofa,42.0,19.0,1027.0,194,0.5757575757575758,False,Asian,male,True,msos,46.6
62,115,54,21,1657,1,pofa,42.0,19.0,1027.0,194,0.5808080808080808,False,Asian,male,True,msos,54.4
62,116,52,11,902,1,iaps,42.0,19.0,1027.0,194,0.5858585858585859,False,Asian,male,True,msos,59.2
62,117,31,26,1590,1,pofa,42.0,19.0,1027.0,194,0.5909090909090909,False,Asian,male,True,msos,52.4
62,118,38,36,1013,1,iaps,42.0,19.0,1027.0,194,0.5959595959595959,False,Asian,male,True,msos,49.6
62,119,11,2,753,1,iaps,42.0,19.0,1027.0,194,0.601010101010101,False,Asian,male,True,msos,37.2
62,120,24,11,714,1,pofa,42.0,19.0,1027.0,194,0.6060606060606061,False,Asian,male,True,msos,31.2
62,121,34,18,1113,1,pofa,42.0,19.0,1027.0,194,0.6111111111111112,False,Asian,male,True,msos,27.6
62,122,49,28,3477,1,iaps,42.0,19.0,1027.0,194,0.6161616161616161,False,Asian,male,True,msos,31.2
62,123,71,57,1051,1,iaps,42.0,19.0,1027.0,194,0.6212121212121212,False,Asian,male,True,msos,37.8
62,124,52,6,1922,1,pofa,42.0,19.0,1027.0,194,0.6262626262626263,False,Asian,male,True,msos,46.0
62,125,67,28,676,1,pofa,42.0,19.0,1027.0,194,0.6313131313131313,False,Asian,male,True,msos,54.6
62,126,19,13,3215,1,pofa,42.0,19.0,1027.0,194,0.6363636363636364,False,Asian,male,True,msos,51.6
62,127,27,19,989,1,pofa,42.0,19.0,1027.0,194,0.6414141414141414,False,Asian,male,True,msos,47.2
62,128,44,34,728,1,pofa,42.0,19.0,1027.0,194,0.6464646464646465,False,Asian,male,True,msos,41.8
62,129,47,27,1332,1,iaps,42.0,19.0,1027.0,194,0.6515151515151515,False,Asian,male,True,msos,40.8
62,130,57,18,1060,1,iaps,42.0,19.0,1027.0,194,0.6565656565656566,False,Asian,male,True,msos,38.8
62,131,68,42,1074,1,pofa,42.0,19.0,1027.0,194,0.6616161616161617,False,Asian,male,True,msos,48.6
62,132,10,7,1326,1,iaps,42.0,19.0,1027.0,194,0.6666666666666666,False,Asian,male,True,msos,45.2
62,133,63,23,934,1,iaps,42.0,19.0,1027.0,194,0.6717171717171717,False,Asian,male,True,msos,49.0
62,134,42,27,928,1,iaps,42.0,19.0,1027.0,194,0.6767676767676768,False,Asian,male,True,msos,48.0
62,135,46,22,1011,1,pofa,42.0,19.0,1027.0,194,0.6818181818181818,False,Asian,male,True,msos,45.8
62,136,46,14,756,1,pofa,42.0,19.0,1027.0,194,0.6868686868686869,False,Asian,male,True,msos,41.4
62,137,14,11,838,1,pofa,42.0,19.0,1027.0,194,0.6919191919191919,False,Asian,male,True,msos,42.2
62,138,48,33,1641,1,iaps,42.0,19.0,1027.0,194,0.696969696969697,False,Asian,male,True,msos,39.2
62,139,47,19,891,1,pofa,42.0,19.0,1027.0,194,0.702020202020202,False,Asian,male,True,msos,40.2
62,140,63,28,2454,1,iaps,42.0,19.0,1027.0,194,0.7070707070707071,False,Asian,male,True,msos,43.6
62,141,37,27,6242,1,pofa,42.0,19.0,1027.0,194,0.7121212121212122,False,Asian,male,True,msos,41.8
62,142,54,17,3544,1,iaps,42.0,19.0,1027.0,194,0.7171717171717171,False,Asian,male,True,msos,49.8
62,143,39,1,1026,1,pofa,42.0,19.0,1027.0,194,0.7222222222222222,False,Asian,male,True,msos,48.0
62,144,79,49,8967,1,pofa,42.0,19.0,1027.0,194,0.7272727272727273,False,Asian,male,True,msos,54.4
62,145,45,21,2497,1,iaps,42.0,19.0,1027.0,194,0.7323232323232324,False,Asian,male,True,msos,50.8
62,146,56,22,2145,1,iaps,42.0,19.0,1027.0,194,0.7373737373737373,False,Asian,male,True,msos,54.6
62,147,53,6,-1,0,iaps,42.0,19.0,1027.0,194,0.7424242424242424,False,Asian,male,True,msos,54.4
62,148,37,16,5221,1,pofa,42.0,19.0,1027.0,194,0.7474747474747475,False,Asian,male,True,msos,54.0
62,149,76,38,1275,1,pofa,42.0,19.0,1027.0,194,0.7525252525252525,False,Asian,male,True,msos,53.4
62,150,36,24,1283,1,pofa,42.0,19.0,1027.0,194,0.7575757575757576,False,Asian,male,True,msos,51.6
62,151,25,11,870,1,pofa,42.0,19.0,1027.0,194,0.7626262626262627,False,Asian,male,True,msos,45.4
62,152,16,2,1226,1,iaps,42.0,19.0,1027.0,194,0.7676767676767676,False,Asian,male,True,msos,38.0
62,153,63,34,919,1,pofa,42.0,19.0,1027.0,194,0.7727272727272727,False,Asian,male,True,msos,43.2
62,154,94,53,1113,1,iaps,42.0,19.0,1027.0,194,0.7777777777777778,False,Asian,male,True,msos,46.8
62,155,74,36,1136,1,pofa,42.0,19.0,1027.0,194,0.7828282828282829,False,Asian,male,True,msos,54.4
62,156,9,9,1585,1,pofa,42.0,19.0,1027.0,194,0.7878787878787878,False,Asian,male,True,msos,51.2
62,157,58,18,4084,1,iaps,42.0,19.0,1027.0,194,0.7929292929292929,False,Asian,male,True,msos,59.6
62,158,42,18,1814,1,pofa,42.0,19.0,1027.0,194,0.797979797979798,False,Asian,male,True,msos,55.4
62,159,69,27,1090,1,iaps,42.0,19.0,1027.0,194,0.803030303030303,False,Asian,male,True,msos,50.4
62,160,52,7,1416,1,iaps,42.0,19.0,1027.0,194,0.8080808080808081,False,Asian,male,True,msos,46.0
62,161,34,28,1001,1,pofa,42.0,19.0,1027.0,194,0.8131313131313131,False,Asian,male,True,msos,51.0
62,162,95,53,2128,1,pofa,42.0,19.0,1027.0,194,0.8181818181818182,False,Asian,male,True,msos,58.4
62,163,79,38,790,1,iaps,42.0,19.0,1027.0,194,0.8232323232323232,False,Asian,male,True,msos,65.8
62,164,82,64,730,1,iaps,42.0,19.0,1027.0,194,0.8282828282828283,False,Asian,male,True,msos,68.4
62,165,16,6,1296,1,pofa,42.0,19.0,1027.0,194,0.8333333333333334,False,Asian,male,True,msos,61.2
62,166,105,22,2634,1,pofa,42.0,19.0,1027.0,194,0.8383838383838383,False,Asian,male,True,msos,75.4
62,167,31,2,3819,1,pofa,42.0,19.0,1027.0,194,0.8434343434343434,False,Asian,male,True,msos,62.6
62,168,54,28,3145,1,iaps,42.0,19.0,1027.0,194,0.8484848484848485,False,Asian,male,True,msos,57.6
62,169,32,2,731,1,iaps,42.0,19.0,1027.0,194,0.8535353535353535,False,Asian,male,True,msos,47.6
62,170,31,0,1130,1,pofa,42.0,19.0,1027.0,194,0.8585858585858586,False,Asian,male,True,msos,50.6
62,171,87,43,2043,1,pofa,42.0,19.0,1027.0,194,0.8636363636363636,False,Asian,male,True,msos,47.0
62,172,41,26,930,1,iaps,42.0,19.0,1027.0,194,0.8686868686868687,False,Asian,male,True,msos,49.0
62,173,31,17,946,1,pofa,42.0,19.0,1027.0,194,0.8737373737373737,False,Asian,male,True,msos,44.4
62,174,59,35,845,1,iaps,42.0,19.0,1027.0,194,0.8787878787878788,False,Asian,male,True,msos,49.8
62,175,42,4,1436,1,pofa,42.0,19.0,1027.0,194,0.8838383838383839,False,Asian,male,True,msos,52.0
62,176,31,17,1709,1,iaps,42.0,19.0,1027.0,194,0.8888888888888888,False,Asian,male,True,msos,40.8
62,177,41,33,751,1,pofa,42.0,19.0,1027.0,194,0.8939393939393939,False,Asian,male,True,msos,40.8
62,178,40,18,1268,1,iaps,42.0,19.0,1027.0,194,0.898989898989899,False,Asian,male,True,msos,42.6
62,179,42,21,929,1,iaps,42.0,19.0,1027.0,194,0.9040404040404041,False,Asian,male,True,msos,39.2
62,180,44,16,2807,0,iaps,42.0,19.0,1027.0,194,0.9090909090909091,False,Asian,male,True,msos,39.6
62,181,48,35,798,1,iaps,42.0,19.0,1027.0,194,0.9141414141414141,False,Asian,male,True,msos,43.0
62,182,13,2,3988,1,pofa,42.0,19.0,1027.0,194,0.9191919191919192,False,Asian,male,True,msos,37.4
62,183,75,46,1903,1,iaps,42.0,19.0,1027.0,194,0.9242424242424242,False,Asian,male,True,msos,44.4
62,184,11,2,1783,1,pofa,42.0,19.0,1027.0,194,0.9292929292929293,False,Asian,male,True,msos,38.2
62,185,21,4,1207,1,iaps,42.0,19.0,1027.0,194,0.9343434343434344,False,Asian,male,True,msos,33.6
62,186,34,7,1694,1,pofa,42.0,19.0,1027.0,194,0.9393939393939394,False,Asian,male,True,msos,30.8
62,187,46,13,1372,1,iaps,42.0,19.0,1027.0,194,0.9444444444444444,False,Asian,male,True,msos,37.4
62,188,40,24,1886,1,pofa,42.0,19.0,1027.0,194,0.9494949494949495,False,Asian,male,True,msos,30.4
62,189,49,8,1310,1,iaps,42.0,19.0,1027.0,194,0.9545454545454546,False,Asian,male,True,msos,38.0
62,190,22,4,1281,1,pofa,42.0,19.0,1027.0,194,0.9595959595959596,False,Asian,male,True,msos,38.2
62,191,29,28,986,1,iaps,42.0,19.0,1027.0,194,0.9646464646464646,False,Asian,male,True,msos,37.2
62,192,23,14,762,0,pofa,42.0,19.0,1027.0,194,0.9696969696969697,False,Asian,male,True,msos,32.6
62,193,42,7,861,1,pofa,42.0,19.0,1027.0,194,0.9747474747474747,False,Asian,male,True,msos,33.0
62,194,46,29,1227,1,pofa,42.0,19.0,1027.0,194,0.9797979797979798,False,Asian,male,True,msos,32.4
62,195,15,8,1099,1,pofa,42.0,19.0,1027.0,194,0.9848484848484849,False,Asian,male,True,msos,31.0
62,196,27,19,844,1,pofa,42.0,19.0,1027.0,194,0.98989898989899,False,Asian,male,True,msos,30.6
62,197,46,27,927,1,pofa,42.0,19.0,1027.0,194,0.9949494949494949,False,Asian,male,True,msos,35.2
66,0,63,47,1385,1,pofa,73.5,37.0,853.5,196,0.0,False,Black or African American,female,True,macos,
66,1,78,40,936,1,pofa,73.5,37.0,853.5,196,0.005050505050505051,False,Black or African American,female,True,macos,
66,2,78,37,1158,1,iaps,73.5,37.0,853.5,196,0.010101010101010102,False,Black or African American,female,True,macos,
66,3,36,35,1105,1,pofa,73.5,37.0,853.5,196,0.015151515151515152,False,Black or African American,female,True,macos,
66,4,82,55,934,1,pofa,73.5,37.0,853.5,196,0.020202020202020204,False,Black or African American,female,True,macos,67.4
66,5,81,37,928,1,iaps,73.5,37.0,853.5,196,0.025252525252525252,False,Black or African American,female,True,macos,71.0
66,6,61,29,755,1,pofa,73.5,37.0,853.5,196,0.030303030303030304,False,Black or African American,female,True,macos,67.6
66,7,81,34,2020,1,iaps,73.5,37.0,853.5,196,0.03535353535353535,False,Black or African American,female,True,macos,68.2
66,8,98,45,801,1,iaps,73.5,37.0,853.5,196,0.04040404040404041,False,Black or African American,female,True,macos,80.6
66,9,25,12,784,1,pofa,73.5,37.0,853.5,196,0.045454545454545456,False,Black or African American,female,True,macos,69.2
66,10,53,28,840,1,pofa,73.5,37.0,853.5,196,0.050505050505050504,False,Black or African American,female,True,macos,63.6
66,11,31,26,1403,1,pofa,73.5,37.0,853.5,196,0.05555555555555555,False,Black or African American,female,True,macos,57.6
66,12,84,29,988,1,pofa,73.5,37.0,853.5,196,0.06060606060606061,False,Black or African American,female,True,macos,58.2
66,13,103,57,1183,1,iaps,73.5,37.0,853.5,196,0.06565656565656566,False,Black or African American,female,True,macos,59.2
66,14,60,28,1173,1,iaps,73.5,37.0,853.5,196,0.0707070707070707,False,Black or African American,female,True,macos,66.2
66,15,103,55,1294,1,iaps,73.5,37.0,853.5,196,0.07575757575757576,False,Black or African American,female,True,macos,76.2
66,16,70,45,986,1,pofa,73.5,37.0,853.5,196,0.08080808080808081,False,Black or African American,female,True,macos,84.0
66,17,50,9,817,1,pofa,73.5,37.0,853.5,196,0.08585858585858586,False,Black or African American,female,True,macos,77.2
66,18,79,30,898,1,pofa,73.5,37.0,853.5,196,0.09090909090909091,False,Black or African American,female,True,macos,72.4
66,19,87,44,876,1,iaps,73.5,37.0,853.5,196,0.09595959595959595,False,Black or African American,female,True,macos,77.8
66,20,73,45,891,1,iaps,73.5,37.0,853.5,196,0.10101010101010101,False,Black or African American,female,True,macos,71.8
66,21,73,36,1147,1,iaps,73.5,37.0,853.5,196,0.10606060606060606,False,Black or African American,female,True,macos,72.4
66,22,88,51,831,1,pofa,73.5,37.0,853.5,196,0.1111111111111111,False,Black or African American,female,True,macos,80.0
66,23,87,37,926,1,iaps,73.5,37.0,853.5,196,0.11616161616161616,False,Black or African American,female,True,macos,81.6
66,24,68,34,1010,1,pofa,73.5,37.0,853.5,196,0.12121212121212122,False,Black or African American,female,True,macos,77.8
66,25,50,24,823,1,iaps,73.5,37.0,853.5,196,0.12626262626262627,False,Black or African American,female,True,macos,73.2
66,26,69,57,805,1,iaps,73.5,37.0,853.5,196,0.13131313131313133,False,Black or African American,female,True,macos,72.4
66,27,63,31,937,1,iaps,73.5,37.0,853.5,196,0.13636363636363635,False,Black or African American,female,True,macos,67.4
66,28,73,48,760,1,iaps,73.5,37.0,853.5,196,0.1414141414141414,False,Black or African American,female,True,macos,64.6
66,29,47,42,952,1,iaps,73.5,37.0,853.5,196,0.14646464646464646,False,Black or African American,female,True,macos,60.4
66,30,79,28,933,1,pofa,73.5,37.0,853.5,196,0.15151515151515152,False,Black or African American,female,True,macos,66.2
66,31,56,27,670,1,pofa,73.5,37.0,853.5,196,0.15656565656565657,False,Black or African American,female,True,macos,63.6
66,32,36,33,651,1,pofa,73.5,37.0,853.5,196,0.16161616161616163,False,Black or African American,female,True,macos,58.2
66,33,91,48,740,1,pofa,73.5,37.0,853.5,196,0.16666666666666666,False,Black or African American,female,True,macos,61.8
66,34,63,41,891,1,iaps,73.5,37.0,853.5,196,0.1717171717171717,False,Black or African American,female,True,macos,65.0
66,35,86,40,928,1,iaps,73.5,37.0,853.5,196,0.17676767676767677,False,Black or African American,female,True,macos,66.4
66,36,95,30,712,1,iaps,73.5,37.0,853.5,196,0.18181818181818182,False,Black or African American,female,True,macos,74.2
66,37,63,34,891,1,pofa,73.5,37.0,853.5,196,0.18686868686868688,False,Black or African American,female,True,macos,79.6
66,38,86,46,597,1,pofa,73.5,37.0,853.5,196,0.1919191919191919,False,Black or African American,female,True,macos,78.6
66,39,73,44,754,1,pofa,73.5,37.0,853.5,196,0.19696969696969696,False,Black or African American,female,True,macos,80.6
66,40,82,37,766,1,iaps,73.5,37.0,853.5,196,0.20202020202020202,False,Black or African American,female,True,macos,79.8
66,41,44,26,858,1,pofa,73.5,37.0,853.5,196,0.20707070707070707,False,Black or African American,female,True,macos,69.6
66,42,78,34,751,1,pofa,73.5,37.0,853.5,196,0.21212121212121213,False,Black or African American,female,True,macos,72.6
66,43,68,39,589,1,pofa,73.5,37.0,853.5,196,0.21717171717171718,False,Black or African American,female,True,macos,69.0
66,44,85,39,1536,1,iaps,73.5,37.0,853.5,196,0.2222222222222222,False,Black or African American,female,True,macos,71.4
66,45,100,59,961,1,iaps,73.5,37.0,853.5,196,0.22727272727272727,False,Black or African American,female,True,macos,75.0
66,46,44,15,1044,1,pofa,73.5,37.0,853.5,196,0.23232323232323232,False,Black or African American,female,True,macos,75.0
66,47,52,25,816,1,pofa,73.5,37.0,853.5,196,0.23737373737373738,False,Black or African American,female,True,macos,69.8
66,48,69,36,708,1,pofa,73.5,37.0,853.5,196,0.24242424242424243,False,Black or African American,female,True,macos,70.0
66,49,53,30,626,1,pofa,73.5,37.0,853.5,196,0.2474747474747475,False,Black or African American,female,True,macos,63.6
66,50,85,42,811,1,pofa,73.5,37.0,853.5,196,0.25252525252525254,False,Black or African American,female,True,macos,60.6
66,51,76,40,722,1,iaps,73.5,37.0,853.5,196,0.25757575757575757,False,Black or African American,female,True,macos,67.0
66,52,76,36,689,1,pofa,73.5,37.0,853.5,196,0.26262626262626265,False,Black or African American,female,True,macos,71.8
66,53,64,30,1114,1,iaps,73.5,37.0,853.5,196,0.2676767676767677,False,Black or African American,female,True,macos,70.8
66,54,62,33,642,1,pofa,73.5,37.0,853.5,196,0.2727272727272727,False,Black or African American,female,True,macos,72.6
66,55,78,40,1091,1,pofa,73.5,37.0,853.5,196,0.2777777777777778,False,Black or African American,female,True,macos,71.2
66,56,59,17,811,1,iaps,73.5,37.0,853.5,196,0.2828282828282828,False,Black or African American,female,True,macos,67.8
66,57,89,48,648,1,iaps,73.5,37.0,853.5,196,0.2878787878787879,False,Black or African American,female,True,macos,70.4
66,58,64,34,1109,1,iaps,73.5,37.0,853.5,196,0.29292929292929293,False,Black or African American,female,True,macos,70.4
66,59,77,44,962,1,iaps,73.5,37.0,853.5,196,0.29797979797979796,False,Black or African American,female,True,macos,73.4
66,60,76,39,695,1,iaps,73.5,37.0,853.5,196,0.30303030303030304,False,Black or African American,female,True,macos,73.0
66,61,77,29,924,1,pofa,73.5,37.0,853.5,196,0.30808080808080807,False,Black or African American,female,True,macos,76.6
66,62,73,46,675,1,pofa,73.5,37.0,853.5,196,0.31313131313131315,False,Black or African American,female,True,macos,73.4
66,63,83,43,639,1,iaps,73.5,37.0,853.5,196,0.3181818181818182,False,Black or African American,female,True,macos,77.2
66,64,80,26,693,1,pofa,73.5,37.0,853.5,196,0.32323232323232326,False,Black or African American,female,True,macos,77.8
66,65,69,27,666,1,pofa,73.5,37.0,853.5,196,0.3282828282828283,False,Black or African American,female,True,macos,76.4
66,66,78,33,655,1,pofa,73.5,37.0,853.5,196,0.3333333333333333,False,Black or African American,female,True,macos,76.6
66,67,99,49,720,1,pofa,73.5,37.0,853.5,196,0.3383838383838384,False,Black or African American,female,True,macos,81.8
66,68,40,39,861,1,pofa,73.5,37.0,853.5,196,0.3434343434343434,False,Black or African American,female,True,macos,73.2
66,69,77,34,736,1,pofa,73.5,37.0,853.5,196,0.3484848484848485,False,Black or African American,female,True,macos,72.6
66,70,80,37,800,1,iaps,73.5,37.0,853.5,196,0.35353535353535354,False,Black or African American,female,True,macos,74.8
66,71,58,19,1134,1,iaps,73.5,37.0,853.5,196,0.35858585858585856,False,Black or African American,female,True,macos,70.8
66,72,75,41,979,1,pofa,73.5,37.0,853.5,196,0.36363636363636365,False,Black or African American,female,True,macos,66.0
66,73,74,42,726,1,pofa,73.5,37.0,853.5,196,0.3686868686868687,False,Black or African American,female,True,macos,72.8
66,74,68,49,1172,1,iaps,73.5,37.0,853.5,196,0.37373737373737376,False,Black or African American,female,True,macos,71.0
66,75,85,41,1074,1,iaps,73.5,37.0,853.5,196,0.3787878787878788,False,Black or African American,female,True,macos,72.0
66,76,70,26,902,1,iaps,73.5,37.0,853.5,196,0.3838383838383838,False,Black or African American,female,True,macos,74.4
66,77,88,44,1817,1,pofa,73.5,37.0,853.5,196,0.3888888888888889,False,Black or African American,female,True,macos,77.0
66,78,77,35,1070,1,iaps,73.5,37.0,853.5,196,0.3939393939393939,False,Black or African American,female,True,macos,77.6
66,79,69,46,911,1,iaps,73.5,37.0,853.5,196,0.398989898989899,False,Black or African American,female,True,macos,77.8
66,80,90,45,1207,1,pofa,73.5,37.0,853.5,196,0.40404040404040403,False,Black or African American,female,True,macos,78.8
66,81,71,36,780,1,pofa,73.5,37.0,853.5,196,0.4090909090909091,False,Black or African American,female,True,macos,79.0
66,82,58,44,1166,1,iaps,73.5,37.0,853.5,196,0.41414141414141414,False,Black or African American,female,True,macos,73.0
66,83,67,22,1029,1,pofa,73.5,37.0,853.5,196,0.41919191919191917,False,Black or African American,female,True,macos,71.0
66,84,116,49,871,1,pofa,73.5,37.0,853.5,196,0.42424242424242425,False,Black or African American,female,True,macos,80.4
66,85,70,32,773,1,iaps,73.5,37.0,853.5,196,0.4292929292929293,False,Black or African American,female,True,macos,76.4
66,86,73,34,948,1,pofa,73.5,37.0,853.5,196,0.43434343434343436,False,Black or African American,female,True,macos,76.8
66,87,82,40,1140,1,iaps,73.5,37.0,853.5,196,0.4393939393939394,False,Black or African American,female,True,macos,81.6
66,88,80,36,814,1,pofa,73.5,37.0,853.5,196,0.4444444444444444,False,Black or African American,female,True,macos,84.2
66,89,94,46,854,1,pofa,73.5,37.0,853.5,196,0.4494949494949495,False,Black or African American,female,True,macos,79.8
66,90,88,45,837,1,pofa,73.5,37.0,853.5,196,0.45454545454545453,False,Black or African American,female,True,macos,83.4
66,91,74,38,1135,1,pofa,73.5,37.0,853.5,196,0.4595959595959596,False,Black or African American,female,True,macos,83.6
66,92,85,44,916,1,iaps,73.5,37.0,853.5,196,0.46464646464646464,False,Black or African American,female,True,macos,84.2
66,93,83,43,810,1,pofa,73.5,37.0,853.5,196,0.4696969696969697,False,Black or African American,female,True,macos,84.8
66,94,26,3,975,1,pofa,73.5,37.0,853.5,196,0.47474747474747475,False,Black or African American,female,True,macos,71.2
66,95,91,53,1841,1,iaps,73.5,37.0,853.5,196,0.4797979797979798,False,Black or African American,female,True,macos,71.8
66,96,80,49,850,1,iaps,73.5,37.0,853.5,196,0.48484848484848486,False,Black or African American,female,True,macos,73.0
66,97,96,49,839,1,pofa,73.5,37.0,853.5,196,0.4898989898989899,False,Black or African American,female,True,macos,75.2
66,98,70,38,790,1,iaps,73.5,37.0,853.5,196,0.494949494949495,False,Black or African American,female,True,macos,72.6
66,99,83,55,1130,1,iaps,73.5,37.0,853.5,196,0.5,False,Black or African American,female,True,macos,84.0
66,100,71,24,1288,1,iaps,73.5,37.0,853.5,196,0.5050505050505051,False,Black or African American,female,True,macos,80.0
66,101,79,31,945,1,iaps,73.5,37.0,853.5,196,0.51010101010101,False,Black or African American,female,True,macos,79.8
66,102,51,39,742,1,pofa,73.5,37.0,853.5,196,0.5151515151515151,False,Black or African American,female,True,macos,70.8
66,103,63,29,912,1,iaps,73.5,37.0,853.5,196,0.5202020202020202,False,Black or African American,female,True,macos,69.4
66,104,92,43,786,1,pofa,73.5,37.0,853.5,196,0.5252525252525253,False,Black or African American,female,True,macos,71.2
66,105,55,43,837,1,pofa,73.5,37.0,853.5,196,0.5303030303030303,False,Black or African American,female,True,macos,68.0
66,106,72,34,791,1,pofa,73.5,37.0,853.5,196,0.5353535353535354,False,Black or African American,female,True,macos,66.6
66,107,44,12,775,1,pofa,73.5,37.0,853.5,196,0.5404040404040404,False,Black or African American,female,True,macos,65.2
66,108,70,28,773,1,iaps,73.5,37.0,853.5,196,0.5454545454545454,False,Black or African American,female,True,macos,66.6
66,109,85,51,1075,1,iaps,73.5,37.0,853.5,196,0.5505050505050505,False,Black or African American,female,True,macos,65.2
66,110,70,35,793,1,pofa,73.5,37.0,853.5,196,0.5555555555555556,False,Black or African American,female,True,macos,68.2
66,111,48,34,648,1,pofa,73.5,37.0,853.5,196,0.5606060606060606,False,Black or African American,female,True,macos,63.4
66,112,79,44,854,0,pofa,73.5,37.0,853.5,196,0.5656565656565656,False,Black or African American,female,True,macos,70.4
66,113,72,27,2215,1,iaps,73.5,37.0,853.5,196,0.5707070707070707,False,Black or African American,female,True,macos,70.8
66,114,67,25,808,1,pofa,73.5,37.0,853.5,196,0.5757575757575758,False,Black or African American,female,True,macos,67.2
66,115,76,37,835,0,iaps,73.5,37.0,853.5,196,0.5808080808080808,False,Black or African American,female,True,macos,68.4
66,116,92,30,714,1,pofa,73.5,37.0,853.5,196,0.5858585858585859,False,Black or African American,female,True,macos,77.2
66,117,91,45,737,1,iaps,73.5,37.0,853.5,196,0.5909090909090909,False,Black or African American,female,True,macos,79.6
66,118,44,7,964,1,iaps,73.5,37.0,853.5,196,0.5959595959595959,False,Black or African American,female,True,macos,74.0
66,119,76,42,772,1,pofa,73.5,37.0,853.5,196,0.601010101010101,False,Black or African American,female,True,macos,75.8
66,120,79,44,1445,1,iaps,73.5,37.0,853.5,196,0.6060606060606061,False,Black or African American,female,True,macos,76.4
66,121,59,27,919,1,pofa,73.5,37.0,853.5,196,0.6111111111111112,False,Black or African American,female,True,macos,69.8
66,122,101,51,856,1,iaps,73.5,37.0,853.5,196,0.6161616161616161,False,Black or African American,female,True,macos,71.8
66,123,71,28,993,1,iaps,73.5,37.0,853.5,196,0.6212121212121212,False,Black or African American,female,True,macos,77.2
66,124,70,36,1080,1,pofa,73.5,37.0,853.5,196,0.6262626262626263,False,Black or African American,female,True,macos,76.0
66,125,74,47,723,1,pofa,73.5,37.0,853.5,196,0.6313131313131313,False,Black or African American,female,True,macos,75.0
66,126,53,7,614,1,pofa,73.5,37.0,853.5,196,0.6363636363636364,False,Black or African American,female,True,macos,73.8
66,127,89,42,788,1,iaps,73.5,37.0,853.5,196,0.6414141414141414,False,Black or African American,female,True,macos,71.4
66,128,72,38,964,1,iaps,73.5,37.0,853.5,196,0.6464646464646465,False,Black or African American,female,True,macos,71.6
66,129,88,48,1125,1,pofa,73.5,37.0,853.5,196,0.6515151515151515,False,Black or African American,female,True,macos,75.2
66,130,67,38,933,1,pofa,73.5,37.0,853.5,196,0.6565656565656566,False,Black or African American,female,True,macos,73.8
66,131,37,30,853,1,iaps,73.5,37.0,853.5,196,0.6616161616161617,False,Black or African American,female,True,macos,70.6
66,132,84,45,789,1,pofa,73.5,37.0,853.5,196,0.6666666666666666,False,Black or African American,female,True,macos,69.6
66,133,42,15,838,1,iaps,73.5,37.0,853.5,196,0.6717171717171717,False,Black or African American,female,True,macos,63.6
66,134,73,35,690,1,iaps,73.5,37.0,853.5,196,0.6767676767676768,False,Black or African American,female,True,macos,60.6
66,135,74,45,648,1,iaps,73.5,37.0,853.5,196,0.6818181818181818,False,Black or African American,female,True,macos,62.0
66,136,57,13,692,1,pofa,73.5,37.0,853.5,196,0.6868686868686869,False,Black or African American,female,True,macos,66.0
66,137,76,39,731,1,iaps,73.5,37.0,853.5,196,0.6919191919191919,False,Black or African American,female,True,macos,64.4
66,138,69,41,989,1,pofa,73.5,37.0,853.5,196,0.696969696969697,False,Black or African American,female,True,macos,69.8
66,139,74,49,1023,1,pofa,73.5,37.0,853.5,196,0.702020202020202,False,Black or African American,female,True,macos,70.0
66,140,68,37,865,1,iaps,73.5,37.0,853.5,196,0.7070707070707071,False,Black or African American,female,True,macos,68.8
66,141,58,24,823,1,iaps,73.5,37.0,853.5,196,0.7121212121212122,False,Black or African American,female,True,macos,69.0
66,142,72,42,4516,1,pofa,73.5,37.0,853.5,196,0.7171717171717171,False,Black or African American,female,True,macos,68.2
66,143,87,43,859,1,pofa,73.5,37.0,853.5,196,0.7222222222222222,False,Black or African American,female,True,macos,71.8
66,144,65,33,784,1,pofa,73.5,37.0,853.5,196,0.7272727272727273,False,Black or African American,female,True,macos,70.0
66,145,34,6,660,1,iaps,73.5,37.0,853.5,196,0.7323232323232324,False,Black or African American,female,True,macos,63.2
66,146,82,54,719,1,pofa,73.5,37.0,853.5,196,0.7373737373737373,False,Black or African American,female,True,macos,68.0
66,147,45,16,716,1,pofa,73.5,37.0,853.5,196,0.7424242424242424,False,Black or African American,female,True,macos,62.6
66,148,78,52,665,1,iaps,73.5,37.0,853.5,196,0.7474747474747475,False,Black or African American,female,True,macos,60.8
66,149,63,32,674,1,pofa,73.5,37.0,853.5,196,0.7525252525252525,False,Black or African American,female,True,macos,60.4
66,150,65,35,772,1,iaps,73.5,37.0,853.5,196,0.7575757575757576,False,Black or African American,female,True,macos,66.6
66,151,55,27,883,1,pofa,73.5,37.0,853.5,196,0.7626262626262627,False,Black or African American,female,True,macos,61.2
66,152,113,43,839,1,iaps,73.5,37.0,853.5,196,0.7676767676767676,False,Black or African American,female,True,macos,74.8
66,153,75,42,649,1,pofa,73.5,37.0,853.5,196,0.7727272727272727,False,Black or African American,female,True,macos,74.2
66,154,85,37,783,1,iaps,73.5,37.0,853.5,196,0.7777777777777778,False,Black or African American,female,True,macos,78.6
66,155,47,7,1204,1,iaps,73.5,37.0,853.5,196,0.7828282828282829,False,Black or African American,female,True,macos,75.0
66,156,66,21,2577,1,iaps,73.5,37.0,853.5,196,0.7878787878787878,False,Black or African American,female,True,macos,77.2
66,157,67,41,585,1,iaps,73.5,37.0,853.5,196,0.7929292929292929,False,Black or African American,female,True,macos,68.0
66,158,57,32,1466,1,iaps,73.5,37.0,853.5,196,0.797979797979798,False,Black or African American,female,True,macos,64.4
66,159,67,31,823,1,pofa,73.5,37.0,853.5,196,0.803030303030303,False,Black or African American,female,True,macos,60.8
66,160,64,27,916,1,pofa,73.5,37.0,853.5,196,0.8080808080808081,False,Black or African American,female,True,macos,64.2
66,161,76,33,709,1,pofa,73.5,37.0,853.5,196,0.8131313131313131,False,Black or African American,female,True,macos,66.2
66,162,63,31,924,1,pofa,73.5,37.0,853.5,196,0.8181818181818182,False,Black or African American,female,True,macos,65.4
66,163,66,27,720,1,pofa,73.5,37.0,853.5,196,0.8232323232323232,False,Black or African American,female,True,macos,67.2
66,164,77,48,1184,1,pofa,73.5,37.0,853.5,196,0.8282828282828283,False,Black or African American,female,True,macos,69.2
66,165,48,23,1104,1,pofa,73.5,37.0,853.5,196,0.8333333333333334,False,Black or African American,female,True,macos,66.0
66,166,100,44,758,1,pofa,73.5,37.0,853.5,196,0.8383838383838383,False,Black or African American,female,True,macos,70.8
66,167,91,51,722,1,pofa,73.5,37.0,853.5,196,0.8434343434343434,False,Black or African American,female,True,macos,76.4
66,168,52,46,743,1,iaps,73.5,37.0,853.5,196,0.8484848484848485,False,Black or African American,female,True,macos,73.6
66,169,82,45,1110,1,iaps,73.5,37.0,853.5,196,0.8535353535353535,False,Black or African American,female,True,macos,74.6
66,170,81,39,876,1,iaps,73.5,37.0,853.5,196,0.8585858585858586,False,Black or African American,female,True,macos,81.2
66,171,101,54,1189,1,pofa,73.5,37.0,853.5,196,0.8636363636363636,False,Black or African American,female,True,macos,81.4
66,172,84,44,928,1,iaps,73.5,37.0,853.5,196,0.8686868686868687,False,Black or African American,female,True,macos,80.0
66,173,39,2,717,1,pofa,73.5,37.0,853.5,196,0.8737373737373737,False,Black or African American,female,True,macos,77.4
66,174,96,51,708,1,pofa,73.5,37.0,853.5,196,0.8787878787878788,False,Black or African American,female,True,macos,80.2
66,175,82,47,747,1,iaps,73.5,37.0,853.5,196,0.8838383838383839,False,Black or African American,female,True,macos,80.4
66,176,55,21,1413,1,iaps,73.5,37.0,853.5,196,0.8888888888888888,False,Black or African American,female,True,macos,71.2
66,177,53,5,681,1,pofa,73.5,37.0,853.5,196,0.8939393939393939,False,Black or African American,female,True,macos,65.0
66,178,75,52,803,1,iaps,73.5,37.0,853.5,196,0.898989898989899,False,Black or African American,female,True,macos,72.2
66,179,55,9,896,1,iaps,73.5,37.0,853.5,196,0.9040404040404041,False,Black or African American,female,True,macos,64.0
66,180,73,29,1758,1,pofa,73.5,37.0,853.5,196,0.9090909090909091,False,Black or African American,female,True,macos,62.2
66,181,82,36,867,1,pofa,73.5,37.0,853.5,196,0.9141414141414141,False,Black or African American,female,True,macos,67.6
66,182,78,44,866,1,pofa,73.5,37.0,853.5,196,0.9191919191919192,False,Black or African American,female,True,macos,72.6
66,183,83,42,734,1,iaps,73.5,37.0,853.5,196,0.9242424242424242,False,Black or African American,female,True,macos,74.2
66,184,94,46,849,1,iaps,73.5,37.0,853.5,196,0.9292929292929293,False,Black or African American,female,True,macos,82.0
66,185,58,16,761,1,pofa,73.5,37.0,853.5,196,0.9343434343434344,False,Black or African American,female,True,macos,79.0
66,186,63,39,1102,1,pofa,73.5,37.0,853.5,196,0.9393939393939394,False,Black or African American,female,True,macos,75.2
66,187,85,33,1287,1,iaps,73.5,37.0,853.5,196,0.9444444444444444,False,Black or African American,female,True,macos,76.6
66,188,64,33,1107,1,pofa,73.5,37.0,853.5,196,0.9494949494949495,False,Black or African American,female,True,macos,72.8
66,189,71,42,942,1,iaps,73.5,37.0,853.5,196,0.9545454545454546,False,Black or African American,female,True,macos,68.2
66,190,77,25,780,1,iaps,73.5,37.0,853.5,196,0.9595959595959596,False,Black or African American,female,True,macos,72.0
66,191,78,44,712,1,iaps,73.5,37.0,853.5,196,0.9646464646464646,False,Black or African American,female,True,macos,75.0
66,192,75,27,801,1,pofa,73.5,37.0,853.5,196,0.9696969696969697,False,Black or African American,female,True,macos,73.0
66,193,39,11,822,1,pofa,73.5,37.0,853.5,196,0.9747474747474747,False,Black or African American,female,True,macos,68.0
66,194,102,54,894,1,pofa,73.5,37.0,853.5,196,0.9797979797979798,False,Black or African American,female,True,macos,74.2
66,195,80,41,760,1,pofa,73.5,37.0,853.5,196,0.9848484848484849,False,Black or African American,female,True,macos,74.8
66,196,73,24,1034,1,iaps,73.5,37.0,853.5,196,0.98989898989899,False,Black or African American,female,True,macos,73.8
66,197,78,29,915,1,pofa,73.5,37.0,853.5,196,0.9949494949494949,False,Black or African American,female,True,macos,74.4
67,0,67,31,791,1,iaps,56.0,30.5,921.0,196,0.0,False,Asian,male,True,macos,
67,1,43,5,737,1,iaps,56.0,30.5,921.0,196,0.005050505050505051,False,Asian,male,True,macos,
67,2,71,40,566,1,pofa,56.0,30.5,921.0,196,0.010101010101010102,False,Asian,male,True,macos,
67,3,38,7,728,1,pofa,56.0,30.5,921.0,196,0.015151515151515152,False,Asian,male,True,macos,
67,4,77,39,719,0,pofa,56.0,30.5,921.0,196,0.020202020202020204,False,Asian,male,True,macos,59.2
67,5,62,35,974,1,iaps,56.0,30.5,921.0,196,0.025252525252525252,False,Asian,male,True,macos,58.2
67,6,65,32,870,1,pofa,56.0,30.5,921.0,196,0.030303030303030304,False,Asian,male,True,macos,62.6
67,7,63,30,885,1,pofa,56.0,30.5,921.0,196,0.03535353535353535,False,Asian,male,True,macos,61.0
67,8,54,40,927,1,pofa,56.0,30.5,921.0,196,0.04040404040404041,False,Asian,male,True,macos,64.2
67,9,60,18,769,1,pofa,56.0,30.5,921.0,196,0.045454545454545456,False,Asian,male,True,macos,60.8
67,10,56,19,766,1,pofa,56.0,30.5,921.0,196,0.050505050505050504,False,Asian,male,True,macos,59.6
67,11,47,12,845,1,iaps,56.0,30.5,921.0,196,0.05555555555555555,False,Asian,male,True,macos,56.0
67,12,51,29,789,1,iaps,56.0,30.5,921.0,196,0.06060606060606061,False,Asian,male,True,macos,53.6
67,13,45,41,791,1,iaps,56.0,30.5,921.0,196,0.06565656565656566,False,Asian,male,True,macos,51.8
67,14,53,36,916,1,iaps,56.0,30.5,921.0,196,0.0707070707070707,False,Asian,male,True,macos,50.4
67,15,45,31,766,1,pofa,56.0,30.5,921.0,196,0.07575757575757576,False,Asian,male,True,macos,48.2
67,16,74,41,893,1,iaps,56.0,30.5,921.0,196,0.08080808080808081,False,Asian,male,True,macos,53.6
67,17,30,22,856,1,iaps,56.0,30.5,921.0,196,0.08585858585858586,False,Asian,male,True,macos,49.4
67,18,65,37,822,1,iaps,56.0,30.5,921.0,196,0.09090909090909091,False,Asian,male,True,macos,53.4
67,19,54,13,828,1,pofa,56.0,30.5,921.0,196,0.09595959595959595,False,Asian,male,True,macos,53.6
67,20,52,32,807,1,pofa,56.0,30.5,921.0,196,0.10101010101010101,False,Asian,male,True,macos,55.0
67,21,42,20,786,1,pofa,56.0,30.5,921.0,196,0.10606060606060606,False,Asian,male,True,macos,48.6
67,22,42,11,1069,1,pofa,56.0,30.5,921.0,196,0.1111111111111111,False,Asian,male,True,macos,51.0
67,23,56,32,1483,1,iaps,56.0,30.5,921.0,196,0.11616161616161616,False,Asian,male,True,macos,49.2
67,24,66,36,812,1,pofa,56.0,30.5,921.0,196,0.12121212121212122,False,Asian,male,True,macos,51.6
67,25,57,22,953,1,pofa,56.0,30.5,921.0,196,0.12626262626262627,False,Asian,male,True,macos,52.6
67,26,47,27,1009,1,iaps,56.0,30.5,921.0,196,0.13131313131313133,False,Asian,male,True,macos,53.6
67,27,63,28,1095,1,pofa,56.0,30.5,921.0,196,0.13636363636363635,False,Asian,male,True,macos,57.8
67,28,62,24,985,1,pofa,56.0,30.5,921.0,196,0.1414141414141414,False,Asian,male,True,macos,59.0
67,29,51,27,896,1,iaps,56.0,30.5,921.0,196,0.14646464646464646,False,Asian,male,True,macos,56.0
67,30,65,40,793,1,iaps,56.0,30.5,921.0,196,0.15151515151515152,False,Asian,male,True,macos,57.6
67,31,29,18,872,1,iaps,56.0,30.5,921.0,196,0.15656565656565657,False,Asian,male,True,macos,54.0
67,32,48,20,932,1,pofa,56.0,30.5,921.0,196,0.16161616161616163,False,Asian,male,True,macos,51.0
67,33,37,17,891,1,iaps,56.0,30.5,921.0,196,0.16666666666666666,False,Asian,male,True,macos,46.0
67,34,61,36,846,1,pofa,56.0,30.5,921.0,196,0.1717171717171717,False,Asian,male,True,macos,48.0
67,35,71,34,932,1,iaps,56.0,30.5,921.0,196,0.17676767676767677,False,Asian,male,True,macos,49.2
67,36,75,38,1050,1,pofa,56.0,30.5,921.0,196,0.18181818181818182,False,Asian,male,True,macos,58.4
67,37,79,37,1348,1,iaps,56.0,30.5,921.0,196,0.18686868686868688,False,Asian,male,True,macos,64.6
67,38,69,39,796,1,iaps,56.0,30.5,921.0,196,0.1919191919191919,False,Asian,male,True,macos,71.0
67,39,74,41,1085,1,iaps,56.0,30.5,921.0,196,0.19696969696969696,False,Asian,male,True,macos,73.6
67,40,40,5,874,1,pofa,56.0,30.5,921.0,196,0.20202020202020202,False,Asian,male,True,macos,67.4
67,41,35,27,765,1,pofa,56.0,30.5,921.0,196,0.20707070707070707,False,Asian,male,True,macos,59.4
67,42,30,20,870,1,pofa,56.0,30.5,921.0,196,0.21212121212121213,False,Asian,male,True,macos,49.6
67,43,57,37,780,1,pofa,56.0,30.5,921.0,196,0.21717171717171718,False,Asian,male,True,macos,47.2
67,44,81,27,1211,1,pofa,56.0,30.5,921.0,196,0.2222222222222222,False,Asian,male,True,macos,48.6
67,45,43,33,747,1,iaps,56.0,30.5,921.0,196,0.22727272727272727,False,Asian,male,True,macos,49.2
67,46,30,6,870,1,iaps,56.0,30.5,921.0,196,0.23232323232323232,False,Asian,male,True,macos,48.2
67,47,52,25,953,1,pofa,56.0,30.5,921.0,196,0.23737373737373738,False,Asian,male,True,macos,52.6
67,48,42,17,952,1,iaps,56.0,30.5,921.0,196,0.24242424242424243,False,Asian,male,True,macos,49.6
67,49,43,38,1046,1,iaps,56.0,30.5,921.0,196,0.2474747474747475,False,Asian,male,True,macos,42.0
67,50,58,26,925,1,pofa,56.0,30.5,921.0,196,0.25252525252525254,False,Asian,male,True,macos,45.0
67,51,68,26,876,1,pofa,56.0,30.5,921.0,196,0.25757575757575757,False,Asian,male,True,macos,52.6
67,52,69,31,707,1,pofa,56.0,30.5,921.0,196,0.26262626262626265,False,Asian,male,True,macos,56.0
67,53,51,24,853,1,pofa,56.0,30.5,921.0,196,0.2676767676767677,False,Asian,male,True,macos,57.8
67,54,57,26,990,1,iaps,56.0,30.5,921.0,196,0.2727272727272727,False,Asian,male,True,macos,60.6
67,55,50,24,745,1,iaps,56.0,30.5,921.0,196,0.2777777777777778,False,Asian,male,True,macos,59.0
67,56,71,34,1011,1,iaps,56.0,30.5,921.0,196,0.2828282828282828,False,Asian,male,True,macos,59.6
67,57,46,33,961,1,iaps,56.0,30.5,921.0,196,0.2878787878787879,False,Asian,male,True,macos,55.0
67,58,68,22,960,1,pofa,56.0,30.5,921.0,196,0.29292929292929293,False,Asian,male,True,macos,58.4
67,59,50,11,704,1,iaps,56.0,30.5,921.0,196,0.29797979797979796,False,Asian,male,True,macos,57.0
67,60,39,14,1120,1,iaps,56.0,30.5,921.0,196,0.30303030303030304,False,Asian,male,True,macos,54.8
67,61,77,29,889,1,pofa,56.0,30.5,921.0,196,0.30808080808080807,False,Asian,male,True,macos,56.0
67,62,58,24,851,1,pofa,56.0,30.5,921.0,196,0.31313131313131315,False,Asian,male,True,macos,58.4
67,63,82,41,772,1,pofa,56.0,30.5,921.0,196,0.3181818181818182,False,Asian,male,True,macos,61.2
67,64,72,30,867,1,pofa,56.0,30.5,921.0,196,0.32323232323232326,False,Asian,male,True,macos,65.6
67,65,81,35,897,1,pofa,56.0,30.5,921.0,196,0.3282828282828283,False,Asian,male,True,macos,74.0
67,66,44,22,937,1,iaps,56.0,30.5,921.0,196,0.3333333333333333,False,Asian,male,True,macos,67.4
67,67,48,28,830,1,iaps,56.0,30.5,921.0,196,0.3383838383838384,False,Asian,male,True,macos,65.4
67,68,59,32,843,1,iaps,56.0,30.5,921.0,196,0.3434343434343434,False,Asian,male,True,macos,60.8
67,69,82,42,892,1,pofa,56.0,30.5,921.0,196,0.3484848484848485,False,Asian,male,True,macos,62.8
67,70,50,28,853,1,pofa,56.0,30.5,921.0,196,0.35353535353535354,False,Asian,male,True,macos,56.6
67,71,75,31,920,1,pofa,56.0,30.5,921.0,196,0.35858585858585856,False,Asian,male,True,macos,62.8
67,72,70,34,916,1,iaps,56.0,30.5,921.0,196,0.36363636363636365,False,Asian,male,True,macos,67.2
67,73,57,27,922,1,iaps,56.0,30.5,921.0,196,0.3686868686868687,False,Asian,male,True,macos,66.8
67,74,60,31,1531,1,iaps,56.0,30.5,921.0,196,0.37373737373737376,False,Asian,male,True,macos,62.4
67,75,55,42,989,1,pofa,56.0,30.5,921.0,196,0.3787878787878788,False,Asian,male,True,macos,63.4
67,76,67,40,1019,1,iaps,56.0,30.5,921.0,196,0.3838383838383838,False,Asian,male,True,macos,61.8
67,77,60,24,1220,1,iaps,56.0,30.5,921.0,196,0.3888888888888889,False,Asian,male,True,macos,59.8
67,78,55,14,1011,1,iaps,56.0,30.5,921.0,196,0.3939393939393939,False,Asian,male,True,macos,59.4
67,79,58,17,949,1,pofa,56.0,30.5,921.0,196,0.398989898989899,False,Asian,male,True,macos,59.0
67,80,58,37,1575,1,pofa,56.0,30.5,921.0,196,0.40404040404040403,False,Asian,male,True,macos,59.6
67,81,48,43,1210,1,pofa,56.0,30.5,921.0,196,0.4090909090909091,False,Asian,male,True,macos,55.8
67,82,41,7,1350,1,pofa,56.0,30.5,921.0,196,0.41414141414141414,False,Asian,male,True,macos,52.0
67,83,80,41,1125,1,pofa,56.0,30.5,921.0,196,0.41919191919191917,False,Asian,male,True,macos,57.0
67,84,39,28,1400,1,pofa,56.0,30.5,921.0,196,0.42424242424242425,False,Asian,male,True,macos,53.2
67,85,7,4,1287,1,pofa,56.0,30.5,921.0,196,0.4292929292929293,False,Asian,male,True,macos,43.0
67,86,66,32,1159,1,iaps,56.0,30.5,921.0,196,0.43434343434343436,False,Asian,male,True,macos,46.6
67,87,63,30,1185,1,pofa,56.0,30.5,921.0,196,0.4393939393939394,False,Asian,male,True,macos,51.0
67,88,39,32,1073,1,iaps,56.0,30.5,921.0,196,0.4444444444444444,False,Asian,male,True,macos,42.8
67,89,55,25,1350,1,pofa,56.0,30.5,921.0,196,0.4494949494949495,False,Asian,male,True,macos,46.0
67,90,72,33,1165,1,pofa,56.0,30.5,921.0,196,0.45454545454545453,False,Asian,male,True,macos,59.0
67,91,61,32,1444,1,pofa,56.0,30.5,921.0,196,0.4595959595959596,False,Asian,male,True,macos,58.0
67,92,46,7,1296,1,pofa,56.0,30.5,921.0,196,0.46464646464646464,False,Asian,male,True,macos,54.6
67,93,72,31,1339,1,iaps,56.0,30.5,921.0,196,0.4696969696969697,False,Asian,male,True,macos,61.2
67,94,61,29,1537,1,iaps,56.0,30.5,921.0,196,0.47474747474747475,False,Asian,male,True,macos,62.4
67,95,64,25,1305,1,iaps,56.0,30.5,921.0,196,0.4797979797979798,False,Asian,male,True,macos,60.8
67,96,37,24,995,1,pofa,56.0,30.5,921.0,196,0.48484848484848486,False,Asian,male,True,macos,56.0
67,97,41,24,946,1,iaps,56.0,30.5,921.0,196,0.4898989898989899,False,Asian,male,True,macos,55.0
67,98,51,10,1331,1,iaps,56.0,30.5,921.0,196,0.494949494949495,False,Asian,male,True,macos,50.8
67,99,64,35,1585,1,pofa,56.0,30.5,921.0,196,0.5,False,Asian,male,True,macos,51.4
67,100,47,47,1629,1,iaps,56.0,30.5,921.0,196,0.5050505050505051,False,Asian,male,True,macos,48.0
67,101,38,1,1051,1,pofa,56.0,30.5,921.0,196,0.51010101010101,False,Asian,male,True,macos,48.2
67,102,55,22,1214,1,pofa,56.0,30.5,921.0,196,0.5151515151515151,False,Asian,male,True,macos,51.0
67,103,61,31,1445,1,iaps,56.0,30.5,921.0,196,0.5202020202020202,False,Asian,male,True,macos,53.0
67,104,41,4,1167,1,pofa,56.0,30.5,921.0,196,0.5252525252525253,False,Asian,male,True,macos,48.4
67,105,71,36,913,1,pofa,56.0,30.5,921.0,196,0.5303030303030303,False,Asian,male,True,macos,53.2
67,106,53,24,845,1,pofa,56.0,30.5,921.0,196,0.5353535353535354,False,Asian,male,True,macos,56.2
67,107,55,27,785,1,iaps,56.0,30.5,921.0,196,0.5404040404040404,False,Asian,male,True,macos,56.2
67,108,74,38,982,1,iaps,56.0,30.5,921.0,196,0.5454545454545454,False,Asian,male,True,macos,58.8
67,109,70,41,1004,1,pofa,56.0,30.5,921.0,196,0.5505050505050505,False,Asian,male,True,macos,64.6
67,110,53,32,733,1,iaps,56.0,30.5,921.0,196,0.5555555555555556,False,Asian,male,True,macos,61.0
67,111,70,38,972,1,pofa,56.0,30.5,921.0,196,0.5606060606060606,False,Asian,male,True,macos,64.4
67,112,25,16,1393,1,iaps,56.0,30.5,921.0,196,0.5656565656565656,False,Asian,male,True,macos,58.4
67,113,56,29,1346,1,iaps,56.0,30.5,921.0,196,0.5707070707070707,False,Asian,male,True,macos,54.8
67,114,72,35,852,1,pofa,56.0,30.5,921.0,196,0.5757575757575758,False,Asian,male,True,macos,55.2
67,115,35,30,1259,1,pofa,56.0,30.5,921.0,196,0.5808080808080808,False,Asian,male,True,macos,51.6
67,116,50,28,871,1,iaps,56.0,30.5,921.0,196,0.5858585858585859,False,Asian,male,True,macos,47.6
67,117,76,43,1042,1,pofa,56.0,30.5,921.0,196,0.5909090909090909,False,Asian,male,True,macos,57.8
67,118,52,30,947,1,pofa,56.0,30.5,921.0,196,0.5959595959595959,False,Asian,male,True,macos,57.0
67,119,44,7,808,1,pofa,56.0,30.5,921.0,196,0.601010101010101,False,Asian,male,True,macos,51.4
67,120,75,35,796,1,pofa,56.0,30.5,921.0,196,0.6060606060606061,False,Asian,male,True,macos,59.4
67,121,61,32,809,1,iaps,56.0,30.5,921.0,196,0.6111111111111112,False,Asian,male,True,macos,61.6
67,122,54,27,888,1,pofa,56.0,30.5,921.0,196,0.6161616161616161,False,Asian,male,True,macos,57.2
67,123,41,3,889,1,iaps,56.0,30.5,921.0,196,0.6212121212121212,False,Asian,male,True,macos,55.0
67,124,67,35,796,1,pofa,56.0,30.5,921.0,196,0.6262626262626263,False,Asian,male,True,macos,59.6
67,125,73,36,815,1,iaps,56.0,30.5,921.0,196,0.6313131313131313,False,Asian,male,True,macos,59.2
67,126,67,35,865,1,pofa,56.0,30.5,921.0,196,0.6363636363636364,False,Asian,male,True,macos,60.4
67,127,37,4,823,1,iaps,56.0,30.5,921.0,196,0.6414141414141414,False,Asian,male,True,macos,57.0
67,128,52,31,929,1,iaps,56.0,30.5,921.0,196,0.6464646464646465,False,Asian,male,True,macos,59.2
67,129,53,31,1067,1,pofa,56.0,30.5,921.0,196,0.6515151515151515,False,Asian,male,True,macos,56.4
67,130,68,38,865,1,iaps,56.0,30.5,921.0,196,0.6565656565656566,False,Asian,male,True,macos,55.4
67,131,53,25,1353,1,pofa,56.0,30.5,921.0,196,0.6616161616161617,False,Asian,male,True,macos,52.6
67,132,61,38,984,1,pofa,56.0,30.5,921.0,196,0.6666666666666666,False,Asian,male,True,macos,57.4
67,133,75,39,912,1,pofa,56.0,30.5,921.0,196,0.6717171717171717,False,Asian,male,True,macos,62.0
67,134,83,37,731,1,iaps,56.0,30.5,921.0,196,0.6767676767676768,False,Asian,male,True,macos,68.0
67,135,56,41,939,1,pofa,56.0,30.5,921.0,196,0.6818181818181818,False,Asian,male,True,macos,65.6
67,136,60,26,711,1,iaps,56.0,30.5,921.0,196,0.6868686868686869,False,Asian,male,True,macos,67.0
67,137,62,29,813,1,pofa,56.0,30.5,921.0,196,0.6919191919191919,False,Asian,male,True,macos,67.2
67,138,52,37,842,1,iaps,56.0,30.5,921.0,196,0.696969696969697,False,Asian,male,True,macos,62.6
67,139,39,23,765,1,pofa,56.0,30.5,921.0,196,0.702020202020202,False,Asian,male,True,macos,53.8
67,140,77,38,882,1,pofa,56.0,30.5,921.0,196,0.7070707070707071,False,Asian,male,True,macos,58.0
67,141,55,18,902,1,pofa,56.0,30.5,921.0,196,0.7121212121212122,False,Asian,male,True,macos,57.0
67,142,62,37,823,1,pofa,56.0,30.5,921.0,196,0.7171717171717171,False,Asian,male,True,macos,57.0
67,143,61,35,1043,1,iaps,56.0,30.5,921.0,196,0.7222222222222222,False,Asian,male,True,macos,58.8
67,144,53,28,766,1,pofa,56.0,30.5,921.0,196,0.7272727272727273,False,Asian,male,True,macos,61.6
67,145,36,2,1027,1,iaps,56.0,30.5,921.0,196,0.7323232323232324,False,Asian,male,True,macos,53.4
67,146,66,36,1016,1,pofa,56.0,30.5,921.0,196,0.7373737373737373,False,Asian,male,True,macos,55.6
67,147,34,32,935,1,iaps,56.0,30.5,921.0,196,0.7424242424242424,False,Asian,male,True,macos,50.0
67,148,70,42,938,1,pofa,56.0,30.5,921.0,196,0.7474747474747475,False,Asian,male,True,macos,51.8
67,149,38,23,938,1,iaps,56.0,30.5,921.0,196,0.7525252525252525,False,Asian,male,True,macos,48.8
67,150,43,21,854,1,iaps,56.0,30.5,921.0,196,0.7575757575757576,False,Asian,male,True,macos,50.2
67,151,65,27,975,1,iaps,56.0,30.5,921.0,196,0.7626262626262627,False,Asian,male,True,macos,50.0
67,152,65,30,1067,1,pofa,56.0,30.5,921.0,196,0.7676767676767676,False,Asian,male,True,macos,56.2
67,153,79,45,927,0,iaps,56.0,30.5,921.0,196,0.7727272727272727,False,Asian,male,True,macos,58.0
67,154,74,31,929,1,pofa,56.0,30.5,921.0,196,0.7777777777777778,False,Asian,male,True,macos,65.2
67,155,59,31,775,1,pofa,56.0,30.5,921.0,196,0.7828282828282829,False,Asian,male,True,macos,68.4
67,156,43,37,849,1,pofa,56.0,30.5,921.0,196,0.7878787878787878,False,Asian,male,True,macos,64.0
67,157,62,27,828,1,pofa,56.0,30.5,921.0,196,0.7929292929292929,False,Asian,male,True,macos,63.4
67,158,47,24,924,1,pofa,56.0,30.5,921.0,196,0.797979797979798,False,Asian,male,True,macos,57.0
67,159,48,34,830,1,iaps,56.0,30.5,921.0,196,0.803030303030303,False,Asian,male,True,macos,51.8
67,160,68,36,861,1,iaps,56.0,30.5,921.0,196,0.8080808080808081,False,Asian,male,True,macos,53.6
67,161,72,44,849,1,iaps,56.0,30.5,921.0,196,0.8131313131313131,False,Asian,male,True,macos,59.4
67,162,53,48,1019,1,pofa,56.0,30.5,921.0,196,0.8181818181818182,False,Asian,male,True,macos,57.6
67,163,58,23,972,1,iaps,56.0,30.5,921.0,196,0.8232323232323232,False,Asian,male,True,macos,59.8
67,164,33,20,977,1,iaps,56.0,30.5,921.0,196,0.8282828282828283,False,Asian,male,True,macos,56.8
67,165,63,32,891,1,iaps,56.0,30.5,921.0,196,0.8333333333333334,False,Asian,male,True,macos,55.8
67,166,71,43,870,1,pofa,56.0,30.5,921.0,196,0.8383838383838383,False,Asian,male,True,macos,55.6
67,167,47,9,1459,1,iaps,56.0,30.5,921.0,196,0.8434343434343434,False,Asian,male,True,macos,54.4
67,168,42,6,1647,1,iaps,56.0,30.5,921.0,196,0.8484848484848485,False,Asian,male,True,macos,51.2
67,169,54,31,1466,1,pofa,56.0,30.5,921.0,196,0.8535353535353535,False,Asian,male,True,macos,55.4
67,170,41,34,1488,1,pofa,56.0,30.5,921.0,196,0.8585858585858586,False,Asian,male,True,macos,51.0
67,171,48,8,1329,1,pofa,56.0,30.5,921.0,196,0.8636363636363636,False,Asian,male,True,macos,46.4
67,172,47,21,1296,1,iaps,56.0,30.5,921.0,196,0.8686868686868687,False,Asian,male,True,macos,46.4
67,173,66,31,1096,1,iaps,56.0,30.5,921.0,196,0.8737373737373737,False,Asian,male,True,macos,51.2
67,174,65,34,1112,1,pofa,56.0,30.5,921.0,196,0.8787878787878788,False,Asian,male,True,macos,53.4
67,175,68,34,865,1,pofa,56.0,30.5,921.0,196,0.8838383838383839,False,Asian,male,True,macos,58.8
67,176,41,9,845,1,iaps,56.0,30.5,921.0,196,0.8888888888888888,False,Asian,male,True,macos,57.4
67,177,36,26,740,1,iaps,56.0,30.5,921.0,196,0.8939393939393939,False,Asian,male,True,macos,55.2
67,178,51,26,910,1,pofa,56.0,30.5,921.0,196,0.898989898989899,False,Asian,male,True,macos,52.2
67,179,78,37,823,1,pofa,56.0,30.5,921.0,196,0.9040404040404041,False,Asian,male,True,macos,54.8
67,180,47,35,949,1,iaps,56.0,30.5,921.0,196,0.9090909090909091,False,Asian,male,True,macos,50.6
67,181,51,26,1060,1,pofa,56.0,30.5,921.0,196,0.9141414141414141,False,Asian,male,True,macos,52.6
67,182,53,44,823,1,iaps,56.0,30.5,921.0,196,0.9191919191919192,False,Asian,male,True,macos,56.0
67,183,26,10,918,1,iaps,56.0,30.5,921.0,196,0.9242424242424242,False,Asian,male,True,macos,51.0
67,184,47,11,855,1,iaps,56.0,30.5,921.0,196,0.9292929292929293,False,Asian,male,True,macos,44.8
67,185,77,37,911,1,pofa,56.0,30.5,921.0,196,0.9343434343434344,False,Asian,male,True,macos,50.8
67,186,76,33,856,1,iaps,56.0,30.5,921.0,196,0.9393939393939394,False,Asian,male,True,macos,55.8
67,187,51,19,798,1,pofa,56.0,30.5,921.0,196,0.9444444444444444,False,Asian,male,True,macos,55.4
67,188,61,33,1519,1,iaps,56.0,30.5,921.0,196,0.9494949494949495,False,Asian,male,True,macos,62.4
67,189,63,37,1119,1,pofa,56.0,30.5,921.0,196,0.9545454545454546,False,Asian,male,True,macos,65.6
67,190,66,39,875,1,pofa,56.0,30.5,921.0,196,0.9595959595959596,False,Asian,male,True,macos,63.4
67,191,51,25,1276,1,iaps,56.0,30.5,921.0,196,0.9646464646464646,False,Asian,male,True,macos,58.4
67,192,64,25,871,1,pofa,56.0,30.5,921.0,196,0.9696969696969697,False,Asian,male,True,macos,61.0
67,193,59,32,780,1,pofa,56.0,30.5,921.0,196,0.9747474747474747,False,Asian,male,True,macos,60.6
67,194,54,26,1929,1,pofa,56.0,30.5,921.0,196,0.9797979797979798,False,Asian,male,True,macos,58.8
67,195,47,41,990,1,pofa,56.0,30.5,921.0,196,0.9848484848484849,False,Asian,male,True,macos,55.0
67,196,75,39,964,1,pofa,56.0,30.5,921.0,196,0.98989898989899,False,Asian,male,True,macos,59.8
67,197,45,21,854,1,iaps,56.0,30.5,921.0,196,0.9949494949494949,False,Asian,male,True,macos,56.0
68,0,97,62,655,1,iaps,90.0,47.0,738.5,194,0.0,False,White,female,True,macos,
68,1,100,56,767,1,pofa,90.0,47.0,738.5,194,0.005050505050505051,False,White,female,True,macos,
68,2,60,50,675,1,iaps,90.0,47.0,738.5,194,0.010101010101010102,False,White,female,True,macos,
68,3,49,43,671,1,pofa,90.0,47.0,738.5,194,0.015151515151515152,False,White,female,True,macos,
68,4,94,38,591,1,iaps,90.0,47.0,738.5,194,0.020202020202020204,False,White,female,True,macos,80.0
68,5,112,56,836,1,pofa,90.0,47.0,738.5,194,0.025252525252525252,False,White,female,True,macos,83.0
68,6,84,36,629,1,iaps,90.0,47.0,738.5,194,0.030303030303030304,False,White,female,True,macos,79.8
68,7,86,31,719,1,pofa,90.0,47.0,738.5,194,0.03535353535353535,False,White,female,True,macos,85.0
68,8,87,38,663,1,pofa,90.0,47.0,738.5,194,0.04040404040404041,False,White,female,True,macos,92.6
68,9,60,43,640,1,pofa,90.0,47.0,738.5,194,0.045454545454545456,False,White,female,True,macos,85.8
68,10,96,59,672,1,pofa,90.0,47.0,738.5,194,0.050505050505050504,False,White,female,True,macos,82.6
68,11,95,47,667,1,iaps,90.0,47.0,738.5,194,0.05555555555555555,False,White,female,True,macos,84.8
68,12,110,57,795,1,iaps,90.0,47.0,738.5,194,0.06060606060606061,False,White,female,True,macos,89.6
68,13,45,14,983,1,iaps,90.0,47.0,738.5,194,0.06565656565656566,False,White,female,True,macos,81.2
68,14,114,53,780,1,pofa,90.0,47.0,738.5,194,0.0707070707070707,False,White,female,True,macos,92.0
68,15,108,63,833,1,pofa,90.0,47.0,738.5,194,0.07575757575757576,False,White,female,True,macos,94.4
68,16,108,57,746,1,pofa,90.0,47.0,738.5,194,0.08080808080808081,False,White,female,True,macos,97.0
68,17,57,6,849,1,pofa,90.0,47.0,738.5,194,0.08585858585858586,False,White,female,True,macos,86.4
68,18,135,50,634,1,iaps,90.0,47.0,738.5,194,0.09090909090909091,False,White,female,True,macos,104.4
68,19,79,14,700,1,pofa,90.0,47.0,738.5,194,0.09595959595959595,False,White,female,True,macos,97.4
68,20,100,49,694,1,iaps,90.0,47.0,738.5,194,0.10101010101010101,False,White,female,True,macos,95.8
68,21,115,56,675,1,iaps,90.0,47.0,738.5,194,0.10606060606060606,False,White,female,True,macos,97.2
68,22,78,26,807,1,pofa,90.0,47.0,738.5,194,0.1111111111111111,False,White,female,True,macos,101.4
68,23,116,51,702,1,iaps,90.0,47.0,738.5,194,0.11616161616161616,False,White,female,True,macos,97.6
68,24,93,40,885,1,pofa,90.0,47.0,738.5,194,0.12121212121212122,False,White,female,True,macos,100.4
68,25,74,56,668,1,iaps,90.0,47.0,738.5,194,0.12626262626262627,False,White,female,True,macos,95.2
68,26,89,18,674,1,pofa,90.0,47.0,738.5,194,0.13131313131313133,False,White,female,True,macos,90.0
68,27,152,81,894,1,iaps,90.0,47.0,738.5,194,0.13636363636363635,False,White,female,True,macos,104.8
68,28,56,55,752,1,iaps,90.0,47.0,738.5,194,0.1414141414141414,False,White,female,True,macos,92.8
68,29,119,53,697,0,pofa,90.0,47.0,738.5,194,0.14646464646464646,False,White,female,True,macos,98.0
68,30,112,36,901,1,pofa,90.0,47.0,738.5,194,0.15151515151515152,False,White,female,True,macos,105.6
68,31,81,51,730,1,iaps,90.0,47.0,738.5,194,0.15656565656565657,False,White,female,True,macos,104.0
68,32,81,55,823,1,iaps,90.0,47.0,738.5,194,0.16161616161616163,False,White,female,True,macos,89.8
68,33,73,40,743,1,iaps,90.0,47.0,738.5,194,0.16666666666666666,False,White,female,True,macos,93.2
68,34,97,46,788,1,pofa,90.0,47.0,738.5,194,0.1717171717171717,False,White,female,True,macos,88.8
68,35,99,42,794,1,pofa,90.0,47.0,738.5,194,0.17676767676767677,False,White,female,True,macos,86.2
68,36,110,55,658,1,pofa,90.0,47.0,738.5,194,0.18181818181818182,False,White,female,True,macos,92.0
68,37,102,53,637,1,iaps,90.0,47.0,738.5,194,0.18686868686868688,False,White,female,True,macos,96.2
68,38,102,50,809,1,pofa,90.0,47.0,738.5,194,0.1919191919191919,False,White,female,True,macos,102.0
68,39,116,52,565,1,iaps,90.0,47.0,738.5,194,0.19696969696969696,False,White,female,True,macos,105.8
68,40,88,44,738,1,pofa,90.0,47.0,738.5,194,0.20202020202020202,False,White,female,True,macos,103.6
68,41,108,54,594,1,pofa,90.0,47.0,738.5,194,0.20707070707070707,False,White,female,True,macos,103.2
68,42,48,23,718,1,iaps,90.0,47.0,738.5,194,0.21212121212121213,False,White,female,True,macos,92.4
68,43,72,39,728,1,pofa,90.0,47.0,738.5,194,0.21717171717171718,False,White,female,True,macos,86.4
68,44,117,60,712,0,pofa,90.0,47.0,738.5,194,0.2222222222222222,False,White,female,True,macos,86.6
68,45,108,48,814,1,iaps,90.0,47.0,738.5,194,0.22727272727272727,False,White,female,True,macos,90.6
68,46,86,54,718,1,pofa,90.0,47.0,738.5,194,0.23232323232323232,False,White,female,True,macos,86.2
68,47,46,35,727,1,iaps,90.0,47.0,738.5,194,0.23737373737373738,False,White,female,True,macos,85.8
68,48,114,53,844,1,pofa,90.0,47.0,738.5,194,0.24242424242424243,False,White,female,True,macos,94.2
68,49,92,55,780,1,iaps,90.0,47.0,738.5,194,0.2474747474747475,False,White,female,True,macos,89.2
68,50,103,54,832,1,iaps,90.0,47.0,738.5,194,0.25252525252525254,False,White,female,True,macos,88.2
68,51,89,37,663,1,iaps,90.0,47.0,738.5,194,0.25757575757575757,False,White,female,True,macos,88.8
68,52,102,61,825,1,iaps,90.0,47.0,738.5,194,0.26262626262626265,False,White,female,True,macos,100.0
68,53,45,8,671,1,pofa,90.0,47.0,738.5,194,0.2676767676767677,False,White,female,True,macos,86.2
68,54,95,39,721,1,iaps,90.0,47.0,738.5,194,0.2727272727272727,False,White,female,True,macos,86.8
68,55,81,48,649,1,iaps,90.0,47.0,738.5,194,0.2777777777777778,False,White,female,True,macos,82.4
68,56,140,88,825,1,iaps,90.0,47.0,738.5,194,0.2828282828282828,False,White,female,True,macos,92.6
68,57,105,54,891,1,pofa,90.0,47.0,738.5,194,0.2878787878787879,False,White,female,True,macos,93.2
68,58,86,45,640,1,pofa,90.0,47.0,738.5,194,0.29292929292929293,False,White,female,True,macos,101.4
68,59,50,7,653,1,pofa,90.0,47.0,738.5,194,0.29797979797979796,False,White,female,True,macos,92.4
68,60,78,34,735,1,pofa,90.0,47.0,738.5,194,0.30303030303030304,False,White,female,True,macos,91.8
68,61,50,0,558,1,pofa,90.0,47.0,738.5,194,0.30808080808080807,False,White,female,True,macos,73.8
68,62,108,59,621,0,pofa,90.0,47.0,738.5,194,0.31313131313131315,False,White,female,True,macos,74.4
68,63,106,58,790,1,pofa,90.0,47.0,738.5,194,0.3181818181818182,False,White,female,True,macos,78.4
68,64,49,40,737,1,pofa,90.0,47.0,738.5,194,0.32323232323232326,False,White,female,True,macos,78.2
68,65,89,46,745,1,iaps,90.0,47.0,738.5,194,0.3282828282828283,False,White,female,True,macos,80.4
68,66,69,33,915,1,iaps,90.0,47.0,738.5,194,0.3333333333333333,False,White,female,True,macos,84.2
68,67,48,45,779,1,pofa,90.0,47.0,738.5,194,0.3383838383838384,False,White,female,True,macos,72.2
68,68,106,41,770,1,iaps,90.0,47.0,738.5,194,0.3434343434343434,False,White,female,True,macos,72.2
68,69,83,45,1030,1,iaps,90.0,47.0,738.5,194,0.3484848484848485,False,White,female,True,macos,79.0
68,70,91,32,924,1,iaps,90.0,47.0,738.5,194,0.35353535353535354,False,White,female,True,macos,79.4
68,71,51,6,727,1,iaps,90.0,47.0,738.5,194,0.35858585858585856,False,White,female,True,macos,75.8
68,72,56,6,687,1,pofa,90.0,47.0,738.5,194,0.36363636363636365,False,White,female,True,macos,77.4
68,73,86,40,1338,1,pofa,90.0,47.0,738.5,194,0.3686868686868687,False,White,female,True,macos,73.4
68,74,122,66,819,1,pofa,90.0,47.0,738.5,194,0.37373737373737376,False,White,female,True,macos,81.2
68,75,59,20,621,1,iaps,90.0,47.0,738.5,194,0.3787878787878788,False,White,female,True,macos,74.8
68,76,103,55,792,1,pofa,90.0,47.0,738.5,194,0.3838383838383838,False,White,female,True,macos,85.2
68,77,85,47,813,1,pofa,90.0,47.0,738.5,194,0.3888888888888889,False,White,female,True,macos,91.0
68,78,79,48,754,1,iaps,90.0,47.0,738.5,194,0.3939393939393939,False,White,female,True,macos,89.6
68,79,87,32,640,1,pofa,90.0,47.0,738.5,194,0.398989898989899,False,White,female,True,macos,82.6
68,80,97,45,695,1,iaps,90.0,47.0,738.5,194,0.40404040404040403,False,White,female,True,macos,90.2
68,81,96,47,979,1,pofa,90.0,47.0,738.5,194,0.4090909090909091,False,White,female,True,macos,88.8
68,82,86,52,796,1,iaps,90.0,47.0,738.5,194,0.41414141414141414,False,White,female,True,macos,89.0
68,83,80,41,726,1,pofa,90.0,47.0,738.5,194,0.41919191919191917,False,White,female,True,macos,89.2
68,84,80,52,748,1,pofa,90.0,47.0,738.5,194,0.42424242424242425,False,White,female,True,macos,87.8
68,85,89,50,784,1,pofa,90.0,47.0,738.5,194,0.4292929292929293,False,White,female,True,macos,86.2
68,86,62,19,664,1,iaps,90.0,47.0,738.5,194,0.43434343434343436,False,White,female,True,macos,79.4
68,87,94,47,708,1,pofa,90.0,47.0,738.5,194,0.4393939393939394,False,White,female,True,macos,81.0
68,88,94,51,842,1,pofa,90.0,47.0,738.5,194,0.4444444444444444,False,White,female,True,macos,83.8
68,89,56,35,687,1,pofa,90.0,47.0,738.5,194,0.4494949494949495,False,White,female,True,macos,79.0
68,90,60,44,739,1,pofa,90.0,47.0,738.5,194,0.45454545454545453,False,White,female,True,macos,73.2
68,91,91,52,1266,1,iaps,90.0,47.0,738.5,194,0.4595959595959596,False,White,female,True,macos,79.0
68,92,89,56,731,1,iaps,90.0,47.0,738.5,194,0.46464646464646464,False,White,female,True,macos,78.0
68,93,101,47,751,1,pofa,90.0,47.0,738.5,194,0.4696969696969697,False,White,female,True,macos,79.4
68,94,87,58,727,1,iaps,90.0,47.0,738.5,194,0.47474747474747475,False,White,female,True,macos,85.6
68,95,104,58,732,1,pofa,90.0,47.0,738.5,194,0.4797979797979798,False,White,female,True,macos,94.4
68,96,99,45,870,1,iaps,90.0,47.0,738.5,194,0.48484848484848486,False,White,female,True,macos,96.0
68,97,66,35,855,1,iaps,90.0,47.0,738.5,194,0.4898989898989899,False,White,female,True,macos,91.4
68,98,85,32,794,1,pofa,90.0,47.0,738.5,194,0.494949494949495,False,White,female,True,macos,88.2
68,99,63,50,811,1,pofa,90.0,47.0,738.5,194,0.5,False,White,female,True,macos,83.4
68,100,108,63,740,1,iaps,90.0,47.0,738.5,194,0.5050505050505051,False,White,female,True,macos,84.2
68,101,60,35,685,1,iaps,90.0,47.0,738.5,194,0.51010101010101,False,White,female,True,macos,76.4
68,102,85,32,720,1,pofa,90.0,47.0,738.5,194,0.5151515151515151,False,White,female,True,macos,80.2
68,103,112,54,672,1,iaps,90.0,47.0,738.5,194,0.5202020202020202,False,White,female,True,macos,85.6
68,104,68,32,683,1,iaps,90.0,47.0,738.5,194,0.5252525252525253,False,White,female,True,macos,86.6
68,105,79,32,630,1,pofa,90.0,47.0,738.5,194,0.5303030303030303,False,White,female,True,macos,80.8
68,106,90,40,660,1,pofa,90.0,47.0,738.5,194,0.5353535353535354,False,White,female,True,macos,86.8
68,107,117,59,609,1,pofa,90.0,47.0,738.5,194,0.5404040404040404,False,White,female,True,macos,93.2
68,108,94,58,776,1,pofa,90.0,47.0,738.5,194,0.5454545454545454,False,White,female,True,macos,89.6
68,109,102,59,690,1,iaps,90.0,47.0,738.5,194,0.5505050505050505,False,White,female,True,macos,96.4
68,110,91,56,753,1,iaps,90.0,47.0,738.5,194,0.5555555555555556,False,White,female,True,macos,98.8
68,111,67,36,733,1,pofa,90.0,47.0,738.5,194,0.5606060606060606,False,White,female,True,macos,94.2
68,112,56,56,688,1,iaps,90.0,47.0,738.5,194,0.5656565656565656,False,White,female,True,macos,82.0
68,113,103,50,778,1,iaps,90.0,47.0,738.5,194,0.5707070707070707,False,White,female,True,macos,83.8
68,114,94,40,702,1,pofa,90.0,47.0,738.5,194,0.5757575757575758,False,White,female,True,macos,82.2
68,115,108,61,665,1,iaps,90.0,47.0,738.5,194,0.5808080808080808,False,White,female,True,macos,85.6
68,116,86,36,870,1,pofa,90.0,47.0,738.5,194,0.5858585858585859,False,White,female,True,macos,89.4
68,117,87,30,613,1,iaps,90.0,47.0,738.5,194,0.5909090909090909,False,White,female,True,macos,95.6
68,118,79,15,678,1,pofa,90.0,47.0,738.5,194,0.5959595959595959,False,White,female,True,macos,90.8
68,119,73,40,616,1,pofa,90.0,47.0,738.5,194,0.601010101010101,False,White,female,True,macos,86.6
68,120,144,95,701,1,iaps,90.0,47.0,738.5,194,0.6060606060606061,False,White,female,True,macos,93.8
68,121,101,52,701,1,iaps,90.0,47.0,738.5,194,0.6111111111111112,False,White,female,True,macos,96.8
68,122,120,61,766,1,pofa,90.0,47.0,738.5,194,0.6161616161616161,False,White,female,True,macos,103.4
68,123,96,59,586,1,pofa,90.0,47.0,738.5,194,0.6212121212121212,False,White,female,True,macos,106.8
68,124,107,60,730,1,pofa,90.0,47.0,738.5,194,0.6262626262626263,False,White,female,True,macos,113.6
68,125,52,15,666,1,pofa,90.0,47.0,738.5,194,0.6313131313131313,False,White,female,True,macos,95.2
68,126,124,61,656,1,iaps,90.0,47.0,738.5,194,0.6363636363636364,False,White,female,True,macos,99.8
68,127,95,39,926,1,pofa,90.0,47.0,738.5,194,0.6414141414141414,False,White,female,True,macos,94.8
68,128,62,27,888,1,iaps,90.0,47.0,738.5,194,0.6464646464646465,False,White,female,True,macos,88.0
68,129,69,43,756,1,iaps,90.0,47.0,738.5,194,0.6515151515151515,False,White,female,True,macos,80.4
68,130,97,55,825,1,pofa,90.0,47.0,738.5,194,0.6565656565656566,False,White,female,True,macos,89.4
68,131,83,41,744,1,pofa,90.0,47.0,738.5,194,0.6616161616161617,False,White,female,True,macos,81.2
68,132,78,23,650,1,pofa,90.0,47.0,738.5,194,0.6666666666666666,False,White,female,True,macos,77.8
68,133,109,55,680,1,pofa,90.0,47.0,738.5,194,0.6717171717171717,False,White,female,True,macos,87.2
68,134,68,20,967,1,iaps,90.0,47.0,738.5,194,0.6767676767676768,False,White,female,True,macos,87.0
68,135,84,42,776,1,pofa,90.0,47.0,738.5,194,0.6818181818181818,False,White,female,True,macos,84.4
68,136,101,54,637,1,pofa,90.0,47.0,738.5,194,0.6868686868686869,False,White,female,True,macos,88.0
68,137,114,53,649,1,iaps,90.0,47.0,738.5,194,0.6919191919191919,False,White,female,True,macos,95.2
68,138,114,56,632,1,iaps,90.0,47.0,738.5,194,0.696969696969697,False,White,female,True,macos,96.2
68,139,121,40,773,1,pofa,90.0,47.0,738.5,194,0.702020202020202,False,White,female,True,macos,106.8
68,140,79,32,816,0,pofa,90.0,47.0,738.5,194,0.7070707070707071,False,White,female,True,macos,105.8
68,141,97,36,739,1,iaps,90.0,47.0,738.5,194,0.7121212121212122,False,White,female,True,macos,105.0
68,142,63,33,783,1,iaps,90.0,47.0,738.5,194,0.7171717171717171,False,White,female,True,macos,94.8
68,143,94,46,679,1,iaps,90.0,47.0,738.5,194,0.7222222222222222,False,White,female,True,macos,90.8
68,144,101,47,594,1,iaps,90.0,47.0,738.5,194,0.7272727272727273,False,White,female,True,macos,86.8
68,145,116,58,743,1,pofa,90.0,47.0,738.5,194,0.7323232323232324,False,White,female,True,macos,94.2
68,146,108,60,866,1,pofa,90.0,47.0,738.5,194,0.7373737373737373,False,White,female,True,macos,96.4
68,147,103,59,735,1,pofa,90.0,47.0,738.5,194,0.7424242424242424,False,White,female,True,macos,104.4
68,148,112,56,693,1,pofa,90.0,47.0,738.5,194,0.7474747474747475,False,White,female,True,macos,108.0
68,149,71,37,708,1,pofa,90.0,47.0,738.5,194,0.7525252525252525,False,White,female,True,macos,102.0
68,150,95,53,679,1,iaps,90.0,47.0,738.5,194,0.7575757575757576,False,White,female,True,macos,97.8
68,151,107,56,780,1,iaps,90.0,47.0,738.5,194,0.7626262626262627,False,White,female,True,macos,97.6
68,152,101,53,987,1,pofa,90.0,47.0,738.5,194,0.7676767676767676,False,White,female,True,macos,97.2
68,153,67,35,1081,1,iaps,90.0,47.0,738.5,194,0.7727272727272727,False,White,female,True,macos,88.2
68,154,102,63,872,1,pofa,90.0,47.0,738.5,194,0.7777777777777778,False,White,female,True,macos,94.4
68,155,73,42,901,1,pofa,90.0,47.0,738.5,194,0.7828282828282829,False,White,female,True,macos,90.0
68,156,40,3,684,1,pofa,90.0,47.0,738.5,194,0.7878787878787878,False,White,female,True,macos,76.6
68,157,59,58,870,1,pofa,90.0,47.0,738.5,194,0.7929292929292929,False,White,female,True,macos,68.2
68,158,108,60,775,1,iaps,90.0,47.0,738.5,194,0.797979797979798,False,White,female,True,macos,76.4
68,159,107,53,837,1,iaps,90.0,47.0,738.5,194,0.803030303030303,False,White,female,True,macos,77.4
68,160,66,21,842,1,iaps,90.0,47.0,738.5,194,0.8080808080808081,False,White,female,True,macos,76.0
68,161,80,59,918,1,iaps,90.0,47.0,738.5,194,0.8131313131313131,False,White,female,True,macos,84.0
68,162,78,41,695,1,iaps,90.0,47.0,738.5,194,0.8181818181818182,False,White,female,True,macos,87.8
68,163,62,38,744,1,pofa,90.0,47.0,738.5,194,0.8232323232323232,False,White,female,True,macos,78.6
68,164,95,35,613,1,iaps,90.0,47.0,738.5,194,0.8282828282828283,False,White,female,True,macos,76.2
68,165,85,44,748,1,iaps,90.0,47.0,738.5,194,0.8333333333333334,False,White,female,True,macos,80.0
68,166,90,52,641,1,pofa,90.0,47.0,738.5,194,0.8383838383838383,False,White,female,True,macos,82.0
68,167,98,35,851,1,iaps,90.0,47.0,738.5,194,0.8434343434343434,False,White,female,True,macos,86.0
68,168,105,38,946,1,pofa,90.0,47.0,738.5,194,0.8484848484848485,False,White,female,True,macos,94.6
68,169,124,69,881,1,pofa,90.0,47.0,738.5,194,0.8535353535353535,False,White,female,True,macos,100.4
68,170,95,50,590,1,pofa,90.0,47.0,738.5,194,0.8585858585858586,False,White,female,True,macos,102.4
68,171,91,43,860,1,pofa,90.0,47.0,738.5,194,0.8636363636363636,False,White,female,True,macos,102.6
68,172,86,46,553,1,iaps,90.0,47.0,738.5,194,0.8686868686868687,False,White,female,True,macos,100.2
68,173,125,46,768,1,pofa,90.0,47.0,738.5,194,0.8737373737373737,False,White,female,True,macos,104.2
68,174,66,31,739,1,iaps,90.0,47.0,738.5,194,0.8787878787878788,False,White,female,True,macos,92.6
68,175,71,30,896,1,pofa,90.0,47.0,738.5,194,0.8838383838383839,False,White,female,True,macos,87.8
68,176,122,61,768,1,pofa,90.0,47.0,738.5,194,0.8888888888888888,False,White,female,True,macos,94.0
68,177,90,51,963,1,iaps,90.0,47.0,738.5,194,0.8939393939393939,False,White,female,True,macos,94.8
68,178,67,47,678,1,iaps,90.0,47.0,738.5,194,0.898989898989899,False,White,female,True,macos,83.2
68,179,95,37,808,1,iaps,90.0,47.0,738.5,194,0.9040404040404041,False,White,female,True,macos,89.0
68,180,74,38,720,1,iaps,90.0,47.0,738.5,194,0.9090909090909091,False,White,female,True,macos,89.6
68,181,56,37,595,1,pofa,90.0,47.0,738.5,194,0.9141414141414141,False,White,female,True,macos,76.4
68,182,74,32,737,1,iaps,90.0,47.0,738.5,194,0.9191919191919192,False,White,female,True,macos,73.2
68,183,82,49,665,1,pofa,90.0,47.0,738.5,194,0.9242424242424242,False,White,female,True,macos,76.2
68,184,160,53,689,1,pofa,90.0,47.0,738.5,194,0.9292929292929293,False,White,female,True,macos,89.2
68,185,62,60,828,1,pofa,90.0,47.0,738.5,194,0.9343434343434344,False,White,female,True,macos,86.8
68,186,152,57,894,1,iaps,90.0,47.0,738.5,194,0.9393939393939394,False,White,female,True,macos,106.0
68,187,59,8,798,1,pofa,90.0,47.0,738.5,194,0.9444444444444444,False,White,female,True,macos,103.0
68,188,68,45,905,1,iaps,90.0,47.0,738.5,194,0.9494949494949495,False,White,female,True,macos,100.2
68,189,90,51,716,1,pofa,90.0,47.0,738.5,194,0.9545454545454546,False,White,female,True,macos,86.2
68,190,66,30,897,1,pofa,90.0,47.0,738.5,194,0.9595959595959596,False,White,female,True,macos,87.0
68,191,68,35,740,1,pofa,90.0,47.0,738.5,194,0.9646464646464646,False,White,female,True,macos,70.2
68,192,96,71,754,1,pofa,90.0,47.0,738.5,194,0.9696969696969697,False,White,female,True,macos,77.6
68,193,103,60,774,1,iaps,90.0,47.0,738.5,194,0.9747474747474747,False,White,female,True,macos,84.6
68,194,68,35,702,1,pofa,90.0,47.0,738.5,194,0.9797979797979798,False,White,female,True,macos,80.2
68,195,80,21,712,1,pofa,90.0,47.0,738.5,194,0.9848484848484849,False,White,female,True,macos,83.0
68,196,72,33,750,1,iaps,90.0,47.0,738.5,194,0.98989898989899,False,White,female,True,macos,83.8
68,197,106,64,660,1,iaps,90.0,47.0,738.5,194,0.9949494949494949,False,White,female,True,macos,85.8
6,0,75,36,780,1,pofa,61.0,30.0,839.0,192,0.0,False,White,female,True,macos,
6,1,63,30,843,1,pofa,61.0,30.0,839.0,192,0.005050505050505051,False,White,female,True,macos,
