order,block_display,block_file,break_display,valmean,valence,scenestim,arousal,outliers,blocknum,arousalmean,Introduction_Loop.thisRepN,Introduction_Loop.thisTrialN,Introduction_Loop.thisN,Introduction_Loop.thisIndex,block_loop.thisRepN,block_loop.thisTrialN,block_loop.thisN,block_loop.thisIndex,Trial_Loop.thisRepN,Trial_Loop.thisTrialN,Trial_Loop.thisN,Trial_Loop.thisIndex,Break_loop.thisRepN,Break_loop.thisTrialN,Break_loop.thisN,Break_loop.thisIndex,block_key.keys,block_key.rt,Break_key.keys,Break_key.rt,date,frameRate,expName,Participant,
0,inst_2,procedure\0.csv,break,5.64,Neutral,2235.bmp,Low,0,0,3.36,,,,,0,0,0,0,0,0,0,19,,,,,space,5.17504649464,,,2016_May_18_1435,119.936269791,CGP,102,
0,inst_2,procedure\0.csv,break,6.71,Positive,2030.bmp,High,0,0,4.54,,,,,0,0,0,0,0,1,1,0,,,,,,,,,2016_May_18_1435,119.936269791,CGP,102,
0,inst_2,procedure\0.csv,break,7.09,Positive,8120.bmp,High,0,0,4.85,,,,,0,0,0,0,0,2,2,11,,,,,,,,,2016_May_18_1435,119.936269791,CGP,102,
0,inst_2,procedure\0.csv,break,2.41,Negative,9340.bmp,High,0,0,5.16,,,,,0,0,0,0,0,3,3,14,,,,,,,,,2016_May_18_1435,119.936269791,CGP,102,
0,inst_2,procedure\0.csv,break,7.7,Positive,2360.bmp,Low,0,0,3.66,,,,,0,0,0,0,0,4,4,20,,,,,,,,,2016_May_18_1435,119.936269791,CGP,102,
0,inst_2,procedure\0.csv,break,7.57,Positive,5600.bmp,High,0,0,5.19,,,,,0,0,0,0,0,5,5,9,,,,,,,,,2016_May_18_1435,119.936269791,CGP,102,
0,inst_2,procedure\0.csv,break,7.02,Positive,8503.bmp,High,1,0,5.22,,,,,0,0,0,0,0,6,6,12,,,,,,,,,2016_May_18_1435,119.936269791,CGP,102,
0,inst_2,procedure\0.csv,break,4.87,Neutral,2393.bmp,Low,0,0,2.93,,,,,0,0,0,0,0,7,7,21,,,,,,,,,2016_May_18_1435,119.936269791,CGP,102,
0,inst_2,procedure\0.csv,break,6.71,Positive,1910.bmp,Low,0,0,3.29,,,,,0,0,0,0,0,8,8,15,,,,,,,,,2016_May_18_1435,119.936269791,CGP,102,
0,inst_2,procedure\0.csv,break,4.14,Neutral,2491.bmp,Low,0,0,3.41,,,,,0,0,0,0,0,9,9,22,,,,,,,,,2016_May_18_1435,119.936269791,CGP,102,
0,inst_2,procedure\0.csv,break,6.34,Positive,2560.bmp,Low,0,0,3.49,,,,,0,0,0,0,0,10,10,23,,,,,,,,,2016_May_18_1435,119.936269791,CGP,102,
0,inst_2,procedure\0.csv,break,5.27,Neutral,7550.bmp,Low,0,0,3.95,,,,,0,0,0,0,0,11,11,25,,,,,,,,,2016_May_18_1435,119.936269791,CGP,102,
0,inst_2,procedure\0.csv,break,5.68,Neutral,2020.bmp,Low,0,0,3.34,,,,,0,0,0,0,0,12,12,16,,,,,,,,,2016_May_18_1435,119.936269791,CGP,102,
0,inst_2,procedure\0.csv,break,3.34,Negative,2120.bmp,High,0,0,5.18,,,,,0,0,0,0,0,13,13,1,,,,,,,,,2016_May_18_1435,119.936269791,CGP,102,
0,inst_2,procedure\0.csv,break,2.3,Negative,3181.bmp,High,0,0,5.06,,,,,0,0,0,0,0,14,14,6,,,,,,,,,2016_May_18_1435,119.936269791,CGP,102,
0,inst_2,procedure\0.csv,break,4.63,Neutral,2215.bmp,Low,1,0,3.38,,,,,0,0,0,0,0,15,15,18,,,,,,,,,2016_May_18_1435,119.936269791,CGP,102,
0,inst_2,procedure\0.csv,break,4.95,Neutral,2890.bmp,Low,0,0,2.95,,,,,0,0,0,0,0,16,16,24,,,,,,,,,2016_May_18_1435,119.936269791,CGP,102,
0,inst_2,procedure\0.csv,break,2.06,Negative,9220.bmp,Low,0,0,4.0,,,,,0,0,0,0,0,17,17,28,,,,,,,,,2016_May_18_1435,119.936269791,CGP,102,
0,inst_2,procedure\0.csv,break,1.95,Negative,2205.bmp,High,0,0,4.53,,,,,0,0,0,0,0,18,18,2,,,,,,,,,2016_May_18_1435,119.936269791,CGP,102,
0,inst_2,procedure\0.csv,break,4.49,Neutral,3210.bmp,High,0,0,5.39,,,,,0,0,0,0,0,19,19,7,,,,,,,,,2016_May_18_1435,119.936269791,CGP,102,
0,inst_2,procedure\0.csv,break,2.98,Negative,9041.bmp,High,0,0,4.64,,,,,0,0,0,0,0,20,20,13,,,,,,,,,2016_May_18_1435,119.936269791,CGP,102,
0,inst_2,procedure\0.csv,break,6.65,Positive,8330.bmp,Low,0,0,4.06,,,,,0,0,0,0,0,21,21,26,,,,,,,,,2016_May_18_1435,119.936269791,CGP,102,
0,inst_2,procedure\0.csv,break,5.01,Neutral,2214.bmp,Low,1,0,3.46,,,,,0,0,0,0,0,22,22,17,,,,,,,,,2016_May_18_1435,119.936269791,CGP,102,
0,inst_2,procedure\0.csv,break,1.78,Negative,2800.bmp,High,0,0,5.49,,,,,0,0,0,0,0,23,23,5,,,,,,,,,2016_May_18_1435,119.936269791,CGP,102,
0,inst_2,procedure\0.csv,break,4.53,Neutral,9210.bmp,Low,0,0,3.08,,,,,0,0,0,0,0,24,24,27,,,,,,,,,2016_May_18_1435,119.936269791,CGP,102,
0,inst_2,procedure\0.csv,break,3.38,Negative,9341.bmp,Low,0,0,4.5,,,,,0,0,0,0,0,25,25,29,,,,,,,,,2016_May_18_1435,119.936269791,CGP,102,
0,inst_2,procedure\0.csv,break,1.8,Negative,3301.bmp,High,0,0,5.21,,,,,0,0,0,0,0,26,26,8,,,,,,,,,2016_May_18_1435,119.936269791,CGP,102,
0,inst_2,procedure\0.csv,break,1.91,Negative,2703.bmp,High,0,0,5.78,,,,,0,0,0,0,0,27,27,4,,,,,,,,,2016_May_18_1435,119.936269791,CGP,102,
0,inst_2,procedure\0.csv,break,6.88,Positive,2655.bmp,High,0,0,4.57,,,,,0,0,0,0,0,28,28,3,,,,,,,,,2016_May_18_1435,119.936269791,CGP,102,
0,inst_2,procedure\0.csv,break,7.02,Positive,8090.bmp,High,0,0,5.71,,,,,0,0,0,0,0,29,29,10,,,,,,,,,2016_May_18_1435,119.936269791,CGP,102,
0,inst_2,procedure\0.csv,break,,,,,,,,,,,,0,0,0,0,,,,,0,0,0,0,,,space,2.46673253407,2016_May_18_1435,119.936269791,CGP,102,
0,inst_2,procedure\0.csv,break,,,,,,,,,,,,0,0,0,0,,,,,,,,,,,,,2016_May_18_1435,119.936269791,CGP,102,
1,cont_inst,procedure\1.csv,break,2.21,Negative,9421.bmp,High,0,1,5.04,,,,,0,1,1,1,0,0,0,11,,,,,space,3.33337595342,,,2016_May_18_1435,119.936269791,CGP,102,
1,cont_inst,procedure\1.csv,break,2.56,Negative,2750.bmp,Low,0,1,4.31,,,,,0,1,1,1,0,1,1,26,,,,,,,,,2016_May_18_1435,119.936269791,CGP,102,
1,cont_inst,procedure\1.csv,break,6.38,Positive,8280.bmp,High,0,1,5.05,,,,,0,1,1,1,0,2,2,8,,,,,,,,,2016_May_18_1435,119.936269791,CGP,102,
1,cont_inst,procedure\1.csv,break,7.35,Positive,2208.bmp,High,0,1,5.68,,,,,0,1,1,1,0,3,3,0,,,,,,,,,2016_May_18_1435,119.936269791,CGP,102,
1,cont_inst,procedure\1.csv,break,1.67,Negative,9040.bmp,High,0,1,5.82,,,,,0,1,1,1,0,4,4,10,,,,,,,,,2016_May_18_1435,119.936269791,CGP,102,
1,cont_inst,procedure\1.csv,break,3.62,Negative,9101.bmp,Low,1,1,4.02,,,,,0,1,1,1,0,5,5,29,,,,,,,,,2016_May_18_1435,119.936269791,CGP,102,
1,cont_inst,procedure\1.csv,break,5.03,Neutral,2220.bmp,High,1,1,4.93,,,,,0,1,1,1,0,6,6,1,,,,,,,,,2016_May_18_1435,119.936269791,CGP,102,
1,cont_inst,procedure\1.csv,break,2.45,Negative,6838.bmp,High,0,1,5.8,,,,,0,1,1,1,0,7,7,6,,,,,,,,,2016_May_18_1435,119.936269791,CGP,102,
1,cont_inst,procedure\1.csv,break,4.82,Neutral,2493.bmp,Low,0,1,3.34,,,,,0,1,1,1,0,8,8,20,,,,,,,,,2016_May_18_1435,119.936269791,CGP,102,
1,cont_inst,procedure\1.csv,break,7.27,Positive,2650.bmp,Low,0,1,4.28,,,,,0,1,1,1,0,9,9,24,,,,,,,,,2016_May_18_1435,119.936269791,CGP,102,
1,cont_inst,procedure\1.csv,break,6.89,Positive,2501.bmp,Low,0,1,3.09,,,,,0,1,1,1,0,10,10,21,,,,,,,,,2016_May_18_1435,119.936269791,CGP,102,
1,cont_inst,procedure\1.csv,break,6.82,Positive,8371.bmp,High,0,1,5.12,,,,,0,1,1,1,0,11,11,9,,,,,,,,,2016_May_18_1435,119.936269791,CGP,102,
1,cont_inst,procedure\1.csv,break,1.92,Negative,3180.bmp,High,0,1,5.77,,,,,0,1,1,1,0,12,12,3,,,,,,,,,2016_May_18_1435,119.936269791,CGP,102,
1,cont_inst,procedure\1.csv,break,2.58,Negative,6311.bmp,High,1,1,4.95,,,,,0,1,1,1,0,13,13,5,,,,,,,,,2016_May_18_1435,119.936269791,CGP,102,
1,cont_inst,procedure\1.csv,break,7.18,Positive,4640.bmp,High,0,1,5.52,,,,,0,1,1,1,0,14,14,4,,,,,,,,,2016_May_18_1435,119.936269791,CGP,102,
1,cont_inst,procedure\1.csv,break,2.12,Negative,9560.bmp,High,0,1,5.5,,,,,0,1,1,1,0,15,15,13,,,,,,,,,2016_May_18_1435,119.936269791,CGP,102,
1,cont_inst,procedure\1.csv,break,4.64,Neutral,2441.bmp,Low,0,1,3.62,,,,,0,1,1,1,0,16,16,19,,,,,,,,,2016_May_18_1435,119.936269791,CGP,102,
1,cont_inst,procedure\1.csv,break,5.22,Neutral,2850.bmp,Low,0,1,3.0,,,,,0,1,1,1,0,17,17,27,,,,,,,,,2016_May_18_1435,119.936269791,CGP,102,
1,cont_inst,procedure\1.csv,break,2.27,Negative,9435.bmp,High,0,1,5.0,,,,,0,1,1,1,0,18,18,12,,,,,,,,,2016_May_18_1435,119.936269791,CGP,102,
1,cont_inst,procedure\1.csv,break,4.72,Neutral,2383.bmp,Low,0,1,3.41,,,,,0,1,1,1,0,19,19,18,,,,,,,,,2016_May_18_1435,119.936269791,CGP,102,
1,cont_inst,procedure\1.csv,break,5.19,Neutral,2514.bmp,Low,0,1,3.5,,,,,0,1,1,1,0,20,20,22,,,,,,,,,2016_May_18_1435,119.936269791,CGP,102,
1,cont_inst,procedure\1.csv,break,5.04,Neutral,2749.bmp,Low,0,1,3.76,,,,,0,1,1,1,0,21,21,25,,,,,,,,,2016_May_18_1435,119.936269791,CGP,102,
1,cont_inst,procedure\1.csv,break,4.79,Neutral,2200.bmp,Low,0,1,3.18,,,,,0,1,1,1,0,22,22,15,,,,,,,,,2016_May_18_1435,119.936269791,CGP,102,
1,cont_inst,procedure\1.csv,break,7.54,Positive,2311.bmp,Low,0,1,4.42,,,,,0,1,1,1,0,23,23,17,,,,,,,,,2016_May_18_1435,119.936269791,CGP,102,
1,cont_inst,procedure\1.csv,break,4.13,Neutral,2520.bmp,Low,0,1,4.22,,,,,0,1,1,1,0,24,24,23,,,,,,,,,2016_May_18_1435,119.936269791,CGP,102,
1,cont_inst,procedure\1.csv,break,7.77,Positive,2550.bmp,High,0,1,4.68,,,,,0,1,1,1,0,25,25,2,,,,,,,,,2016_May_18_1435,119.936269791,CGP,102,
1,cont_inst,procedure\1.csv,break,7.08,Positive,7480.bmp,High,0,1,4.55,,,,,0,1,1,1,0,26,26,7,,,,,,,,,2016_May_18_1435,119.936269791,CGP,102,
1,cont_inst,procedure\1.csv,break,2.54,Negative,9830.bmp,High,0,1,4.86,,,,,0,1,1,1,0,27,27,14,,,,,,,,,2016_May_18_1435,119.936269791,CGP,102,
1,cont_inst,procedure\1.csv,break,4.39,Neutral,2221.bmp,Low,0,1,3.07,,,,,0,1,1,1,0,28,28,16,,,,,,,,,2016_May_18_1435,119.936269791,CGP,102,
1,cont_inst,procedure\1.csv,break,6.6,Positive,5750.bmp,Low,1,1,3.14,,,,,0,1,1,1,0,29,29,28,,,,,,,,,2016_May_18_1435,119.936269791,CGP,102,
1,cont_inst,procedure\1.csv,break,,,,,,,,,,,,0,1,1,1,,,,,0,0,0,0,,,space,3.09177460064,2016_May_18_1435,119.936269791,CGP,102,
1,cont_inst,procedure\1.csv,break,,,,,,,,,,,,0,1,1,1,,,,,,,,,,,,,2016_May_18_1435,119.936269791,CGP,102,
2,cont_inst,procedure\2.csv,blank,2.02,Negative,3230.bmp,High,0,2,5.41,,,,,0,2,2,2,0,0,0,6,,,,,space,3.09175522788,,,2016_May_18_1435,119.936269791,CGP,102,
2,cont_inst,procedure\2.csv,blank,6.56,Positive,4653.bmp,High,0,2,5.83,,,,,0,2,2,2,0,1,1,9,,,,,,,,,2016_May_18_1435,119.936269791,CGP,102,
2,cont_inst,procedure\2.csv,blank,5.53,Neutral,2579.bmp,Low,0,2,3.85,,,,,0,2,2,2,0,2,2,23,,,,,,,,,2016_May_18_1435,119.936269791,CGP,102,
2,cont_inst,procedure\2.csv,blank,2.93,Negative,9530.bmp,High,0,2,5.2,,,,,0,2,2,2,0,3,3,14,,,,,,,,,2016_May_18_1435,119.936269791,CGP,102,
2,cont_inst,procedure\2.csv,blank,4.23,Neutral,7234.bmp,Low,0,2,2.96,,,,,0,2,2,2,0,4,4,28,,,,,,,,,2016_May_18_1435,119.936269791,CGP,102,
2,cont_inst,procedure\2.csv,blank,6.64,Positive,2250.bmp,Low,0,2,4.19,,,,,0,2,2,2,0,5,5,18,,,,,,,,,2016_May_18_1435,119.936269791,CGP,102,
2,cont_inst,procedure\2.csv,blank,2.96,Negative,2455.bmp,Low,0,2,4.46,,,,,0,2,2,2,0,6,6,22,,,,,,,,,2016_May_18_1435,119.936269791,CGP,102,
2,cont_inst,procedure\2.csv,blank,4.83,Neutral,2190.bmp,Low,0,2,2.41,,,,,0,2,2,2,0,7,7,16,,,,,,,,,2016_May_18_1435,119.936269791,CGP,102,
2,cont_inst,procedure\2.csv,blank,4.5,Neutral,2272.bmp,Low,0,2,3.74,,,,,0,2,2,2,0,8,8,20,,,,,,,,,2016_May_18_1435,119.936269791,CGP,102,
2,cont_inst,procedure\2.csv,blank,7.56,Positive,8380.bmp,High,0,2,5.74,,,,,0,2,2,2,0,9,9,12,,,,,,,,,2016_May_18_1435,119.936269791,CGP,102,
2,cont_inst,procedure\2.csv,blank,4.31,Neutral,2810.bmp,Low,0,2,4.47,,,,,0,2,2,2,0,10,10,26,,,,,,,,,2016_May_18_1435,119.936269791,CGP,102,
2,cont_inst,procedure\2.csv,blank,2.42,Negative,2799.bmp,High,0,2,5.02,,,,,0,2,2,2,0,11,11,4,,,,,,,,,2016_May_18_1435,119.936269791,CGP,102,
2,cont_inst,procedure\2.csv,blank,4.38,Neutral,2210.bmp,Low,0,2,3.56,,,,,0,2,2,2,0,12,12,17,,,,,,,,,2016_May_18_1435,119.936269791,CGP,102,
2,cont_inst,procedure\2.csv,blank,2.45,Negative,2900.bmp,High,0,2,5.09,,,,,0,2,2,2,0,13,13,5,,,,,,,,,2016_May_18_1435,119.936269791,CGP,102,
2,cont_inst,procedure\2.csv,blank,3.26,Negative,2590.bmp,Low,0,2,3.93,,,,,0,2,2,2,0,14,14,24,,,,,,,,,2016_May_18_1435,119.936269791,CGP,102,
2,cont_inst,procedure\2.csv,blank,5.96,Positive,8465.bmp,Low,0,2,1.49,,,,,0,2,2,2,0,15,15,29,,,,,,,,,2016_May_18_1435,119.936269791,CGP,102,
2,cont_inst,procedure\2.csv,blank,6.65,Positive,8041.bmp,High,0,2,5.49,,,,,0,2,2,2,0,16,16,11,,,,,,,,,2016_May_18_1435,119.936269791,CGP,102,
2,cont_inst,procedure\2.csv,blank,7.12,Positive,4599.bmp,High,0,2,5.69,,,,,0,2,2,2,0,17,17,7,,,,,,,,,2016_May_18_1435,119.936269791,CGP,102,
2,cont_inst,procedure\2.csv,blank,5.31,Neutral,2870.bmp,Low,0,2,3.01,,,,,0,2,2,2,0,18,18,27,,,,,,,,,2016_May_18_1435,119.936269791,CGP,102,
2,cont_inst,procedure\2.csv,blank,7.76,Positive,8420.bmp,High,0,2,5.56,,,,,0,2,2,2,0,19,19,13,,,,,,,,,2016_May_18_1435,119.936269791,CGP,102,
2,cont_inst,procedure\2.csv,blank,5.79,Neutral,5455.bmp,High,0,2,4.56,,,,,0,2,2,2,0,20,20,10,,,,,,,,,2016_May_18_1435,119.936269791,CGP,102,
2,cont_inst,procedure\2.csv,blank,6.86,Positive,1601.bmp,Low,1,2,3.92,,,,,0,2,2,2,0,21,21,15,,,,,,,,,2016_May_18_1435,119.936269791,CGP,102,
2,cont_inst,procedure\2.csv,blank,1.79,Negative,2095.bmp,High,0,2,5.25,,,,,0,2,2,2,0,22,22,0,,,,,,,,,2016_May_18_1435,119.936269791,CGP,102,
2,cont_inst,procedure\2.csv,blank,5.31,Neutral,2745.1.bmp,Low,0,2,3.26,,,,,0,2,2,2,0,23,23,25,,,,,,,,,2016_May_18_1435,119.936269791,CGP,102,
2,cont_inst,procedure\2.csv,blank,6.6,Positive,4617.bmp,High,0,2,5.19,,,,,0,2,2,2,0,24,24,8,,,,,,,,,2016_May_18_1435,119.936269791,CGP,102,
2,cont_inst,procedure\2.csv,blank,4.62,Neutral,2410.bmp,Low,0,2,4.13,,,,,0,2,2,2,0,25,25,21,,,,,,,,,2016_May_18_1435,119.936269791,CGP,102,
2,cont_inst,procedure\2.csv,blank,3.04,Negative,2691.bmp,High,1,2,5.85,,,,,0,2,2,2,0,26,26,3,,,,,,,,,2016_May_18_1435,119.936269791,CGP,102,
2,cont_inst,procedure\2.csv,blank,8.06,Positive,2260.bmp,Low,0,2,4.26,,,,,0,2,2,2,0,27,27,19,,,,,,,,,2016_May_18_1435,119.936269791,CGP,102,
2,cont_inst,procedure\2.csv,blank,2.2,Negative,2375.1.bmp,High,0,2,4.88,,,,,0,2,2,2,0,28,28,2,,,,,,,,,2016_May_18_1435,119.936269791,CGP,102,
2,cont_inst,procedure\2.csv,blank,3.36,Negative,2278.bmp,High,0,2,4.55,,,,,0,2,2,2,0,29,29,1,,,,,,,,,2016_May_18_1435,119.936269791,CGP,102,
2,cont_inst,procedure\2.csv,blank,,,,,,,,,,,,0,2,2,2,,,,,0,0,0,0,,,None,,2016_May_18_1435,119.936269791,CGP,102,
2,cont_inst,procedure\2.csv,blank,,,,,,,,,,,,0,2,2,2,,,,,,,,,,,,,2016_May_18_1435,119.936269791,CGP,102,
